SubjectID,Rotation,TrialCounter,TrialID,RT,Response,Condition,Accuracy
2,1,11,311,0.498,1,stem_priming,1
2,1,12,226,0.69,1,suffix_control,1
2,1,13,177,0.585,0,nonword,1
2,1,14,367,1.063,0,nonword,1
2,1,15,476,0.716,0,nonword,1
2,1,16,460,0.739,0,nonword,1
2,1,17,315,0.599,1,stem_priming,1
2,1,18,307,0.462,1,stem_priming,1
2,1,19,258,1.179,0,nonword,1
2,1,20,125,0.547,1,suffix_priming,1
2,1,21,121,0.523,1,suffix_priming,1
2,1,22,452,1.283,0,nonword,1
2,1,23,149,0.903,0,nonword,1
2,1,24,145,0.651,0,nonword,1
2,1,25,351,1.619,0,nonword,1
2,1,26,355,1.549,0,nonword,1
2,1,27,157,0.616,0,nonword,1
2,1,28,412,0.557,1,stem_control,1
2,1,29,133,1.278,1,suffix_priming,1
2,1,30,242,0.503,1,nonword,0
2,1,31,230,0.548,1,suffix_control,1
2,1,32,371,1.415,1,nonword,0
2,1,33,109,0.623,1,suffix_priming,1
2,1,34,246,0.926,0,nonword,1
2,1,35,234,0.619,1,suffix_control,1
2,1,36,105,0.757,1,suffix_priming,1
2,1,37,274,1.058,0,nonword,1
2,1,38,202,0.588,1,suffix_control,1
2,1,39,472,1.092,0,nonword,1
2,1,40,137,0.593,1,suffix_priming,1
2,1,41,343,0.887,0,nonword,1
2,1,42,480,0.845,0,nonword,1
2,1,43,214,0.686,1,suffix_control,1
2,1,44,238,1.514,0,suffix_control,0
2,1,45,165,0.999,0,nonword,1
2,1,46,161,1.191,0,nonword,1
2,1,47,444,0.969,0,nonword,1
2,1,48,210,0.62,1,suffix_control,1
2,1,49,153,0.691,0,nonword,1
2,1,50,169,1.384,0,nonword,1
2,1,51,266,0.711,0,nonword,1
2,1,52,206,0.895,1,suffix_control,1
2,1,53,101,1.003,1,suffix_priming,1
2,1,54,173,0.827,0,nonword,1
2,1,55,250,1.013,0,nonword,1
2,1,56,440,0.655,1,stem_control,1
2,1,57,448,0.643,0,nonword,1
2,1,58,218,0.628,1,suffix_control,1
2,1,59,303,0.49,1,stem_priming,1
2,1,60,404,0.521,1,stem_control,1
2,1,61,117,0.465,1,suffix_priming,1
2,1,62,436,0.686,1,stem_control,1
2,1,63,420,0.794,1,stem_control,1
2,1,64,468,1.069,0,nonword,1
2,1,65,432,0.826,1,stem_control,1
2,1,66,408,0.74,1,stem_control,1
2,1,67,113,0.637,1,suffix_priming,1
2,1,68,270,0.809,0,nonword,1
2,1,69,363,0.6,0,nonword,1
2,1,70,456,1.078,0,nonword,1
2,1,71,379,1.029,0,nonword,1
2,1,72,359,0.978,0,nonword,1
2,1,73,327,0.588,1,stem_priming,1
2,1,74,254,0.656,0,nonword,1
2,1,75,129,0.549,1,suffix_priming,1
2,1,76,375,1.416,0,nonword,1
2,1,77,424,0.779,1,stem_control,1
2,1,78,339,0.963,1,stem_priming,1
2,1,79,319,1.249,0,stem_priming,0
2,1,80,262,0.713,0,nonword,1
2,1,81,222,0.769,0,suffix_control,0
2,1,82,335,0.592,1,stem_priming,1
2,1,83,416,0.635,1,stem_control,1
2,1,84,323,0.592,1,stem_priming,1
2,1,85,331,0.618,1,stem_priming,1
2,1,86,278,0.58,0,nonword,1
2,1,87,464,0.595,0,nonword,1
2,1,88,428,0.763,1,stem_control,1
2,1,89,141,0.931,0,nonword,1
2,1,90,347,0.707,0,nonword,1
3,2,11,233,0.843,1,suffix_control,1
3,2,12,250,0.737,0,nonword,1
3,2,13,334,0.698,1,stem_priming,1
3,2,14,322,0.889,1,stem_priming,1
3,2,15,201,0.748,1,suffix_control,1
3,2,16,225,0.594,1,suffix_control,1
3,2,17,338,0.779,1,stem_priming,1
3,2,18,173,0.86,0,nonword,1
3,2,19,452,0.981,0,nonword,1
3,2,20,254,0.91,0,nonword,1
3,2,21,112,0.637,1,suffix_priming,1
3,2,22,108,0.798,1,suffix_priming,1
3,2,23,371,0.939,0,nonword,1
3,2,24,157,0.922,0,nonword,1
3,2,25,128,0.707,1,suffix_priming,1
3,2,26,314,0.585,1,stem_priming,1
3,2,27,444,0.921,0,nonword,1
3,2,28,270,0.8,0,nonword,1
3,2,29,213,0.664,1,suffix_control,1
3,2,30,326,0.571,1,stem_priming,1
3,2,31,456,0.912,0,nonword,1
3,2,32,468,0.85,0,nonword,1
3,2,33,149,0.733,0,nonword,1
3,2,34,120,0.549,1,suffix_priming,1
3,2,35,116,0.566,1,suffix_priming,1
3,2,36,140,0.661,1,suffix_priming,1
3,2,37,229,0.574,1,suffix_control,1
3,2,38,411,0.555,1,stem_control,1
3,2,39,104,0.846,1,suffix_priming,1
3,2,40,161,0.859,0,nonword,1
3,2,41,435,0.551,1,stem_control,1
3,2,42,242,0.618,0,nonword,1
3,2,43,355,0.548,0,nonword,1
3,2,44,221,0.505,1,suffix_control,1
3,2,45,415,0.704,1,stem_control,1
3,2,46,464,0.685,0,nonword,1
3,2,47,480,0.603,0,nonword,1
3,2,48,141,0.795,0,nonword,1
3,2,49,165,0.672,0,nonword,1
3,2,50,407,0.539,1,stem_control,1
3,2,51,427,0.478,1,stem_control,1
3,2,52,351,0.777,0,nonword,1
3,2,53,177,0.575,0,nonword,1
3,2,54,448,0.892,0,nonword,1
3,2,55,330,0.495,1,stem_priming,1
3,2,56,124,0.577,1,suffix_priming,1
3,2,57,476,0.695,0,nonword,1
3,2,58,306,0.896,1,stem_priming,1
3,2,59,136,0.562,1,suffix_priming,1
3,2,60,423,0.524,1,stem_control,1
3,2,61,439,1.334,1,stem_control,1
3,2,62,310,0.487,1,stem_priming,1
3,2,63,262,0.682,0,nonword,1
3,2,64,274,0.792,0,nonword,1
3,2,65,460,0.938,0,nonword,1
3,2,66,237,0.735,1,suffix_control,1
3,2,67,318,0.514,1,stem_priming,1
3,2,68,246,0.732,0,nonword,1
3,2,69,363,0.984,0,nonword,1
3,2,70,375,1.327,0,nonword,1
3,2,71,302,0.555,1,stem_priming,1
3,2,72,258,0.808,0,nonword,1
3,2,73,145,0.706,0,nonword,1
3,2,74,431,0.598,1,stem_control,1
3,2,75,132,0.777,1,suffix_priming,1
3,2,76,266,0.618,0,nonword,1
3,2,77,403,0.472,1,stem_control,1
3,2,78,217,0.562,1,suffix_control,1
3,2,79,367,0.722,0,nonword,1
3,2,80,278,0.673,0,nonword,1
3,2,81,359,0.966,0,nonword,1
3,2,82,153,0,0,nonword,1
3,2,83,343,0.851,0,nonword,1
3,2,84,347,0.577,0,nonword,1
3,2,85,379,0.647,0,nonword,1
3,2,86,205,0.49,1,suffix_control,1
3,2,87,419,0.759,1,stem_control,1
3,2,88,169,0.706,0,nonword,1
3,2,89,472,1.155,0,nonword,1
3,2,90,209,0.533,1,suffix_control,1
4,3,11,321,0.777,1,stem_priming,1
4,3,12,204,1.049,1,suffix_control,1
4,3,13,472,0.935,0,nonword,1
4,3,14,119,0.731,1,suffix_priming,1
4,3,15,317,0.611,1,stem_priming,1
4,3,16,452,1.322,0,nonword,1
4,3,17,444,1.227,0,nonword,1
4,3,18,406,1.719,1,stem_control,1
4,3,19,418,0.798,1,stem_control,1
4,3,20,246,0.743,0,nonword,1
4,3,21,422,0.548,1,stem_control,1
4,3,22,161,1.028,0,nonword,1
4,3,23,480,1.092,0,nonword,1
4,3,24,456,1.125,0,nonword,1
4,3,25,173,0.974,0,nonword,1
4,3,26,127,0.667,1,suffix_priming,1
4,3,27,141,0.787,0,nonword,1
4,3,28,254,0.629,0,nonword,1
4,3,29,135,0.917,1,suffix_priming,1
4,3,30,270,1.445,0,nonword,1
4,3,31,236,0.769,1,suffix_control,1
4,3,32,212,0.987,1,suffix_control,1
4,3,33,240,0.834,1,suffix_control,1
4,3,34,232,1.258,1,suffix_control,1
4,3,35,430,0.724,1,stem_control,1
4,3,36,258,0.873,0,nonword,1
4,3,37,169,1.385,0,nonword,1
4,3,38,438,0.81,1,stem_control,1
4,3,39,228,0.897,1,suffix_control,1
4,3,40,325,0.611,1,stem_priming,1
4,3,41,242,0.85,0,nonword,1
4,3,42,145,1.668,0,nonword,1
4,3,43,220,1.153,1,suffix_control,1
4,3,44,460,1.908,0,nonword,1
4,3,45,426,1.596,1,stem_control,1
4,3,46,448,0.965,0,nonword,1
4,3,47,329,0.566,1,stem_priming,1
4,3,48,165,0.977,0,nonword,1
4,3,49,111,1.107,1,suffix_priming,1
4,3,50,107,0.831,1,suffix_priming,1
4,3,51,313,0.778,1,stem_priming,1
4,3,52,177,1.34,0,nonword,1
4,3,53,216,1.634,1,suffix_control,1
4,3,54,278,0.784,0,nonword,1
4,3,55,355,0.955,0,nonword,1
4,3,56,351,1.623,0,nonword,1
4,3,57,153,1.296,0,nonword,1
4,3,58,157,1,0,nonword,1
4,3,59,266,1.156,0,nonword,1
4,3,60,115,0.705,1,suffix_priming,1
4,3,61,468,1.116,0,nonword,1
4,3,62,347,0.894,0,nonword,1
4,3,63,309,0.713,1,stem_priming,1
4,3,64,359,1.697,0,nonword,1
4,3,65,139,1.493,1,suffix_priming,1
4,3,66,224,0.769,1,suffix_control,1
4,3,67,375,1.462,0,nonword,1
4,3,68,371,1.769,0,nonword,1
4,3,69,402,0.791,1,stem_control,1
4,3,70,476,0.574,0,nonword,1
4,3,71,434,0.918,1,stem_control,1
4,3,72,131,1.369,1,suffix_priming,1
4,3,73,208,1.216,1,suffix_control,1
4,3,74,363,1.398,0,nonword,1
4,3,75,149,1.506,0,nonword,1
4,3,76,379,1.595,0,nonword,1
4,3,77,262,1.854,0,nonword,1
4,3,78,464,1.415,0,nonword,1
4,3,79,274,0,0,nonword,1
4,3,80,305,1.054,1,stem_priming,1
4,3,81,343,1.241,0,nonword,1
4,3,82,333,0.884,1,stem_priming,1
4,3,83,414,0.668,1,stem_control,1
4,3,84,301,0.767,1,stem_priming,1
4,3,85,103,0.656,1,suffix_priming,1
4,3,86,337,0.718,1,stem_priming,1
4,3,87,123,0.72,1,suffix_priming,1
4,3,88,250,0.779,0,nonword,1
4,3,89,410,0.85,1,stem_control,1
4,3,90,367,1.384,0,nonword,1
5,4,11,320,0.605,1,stem_priming,1
5,4,12,316,0.601,1,stem_priming,1
5,4,13,177,1.241,0,nonword,1
5,4,14,231,1.147,1,suffix_control,1
5,4,15,270,0.984,0,nonword,1
5,4,16,413,0.59,1,stem_control,1
5,4,17,215,0.602,1,suffix_control,1
5,4,18,425,0.65,1,stem_control,1
5,4,19,126,0.585,1,suffix_priming,1
5,4,20,274,1.244,0,nonword,1
5,4,21,379,1.04,0,nonword,1
5,4,22,122,0.779,1,suffix_priming,1
5,4,23,219,0.795,1,suffix_control,1
5,4,24,207,0.558,1,suffix_control,1
5,4,25,145,1.287,0,nonword,1
5,4,26,157,1.228,0,nonword,1
5,4,27,375,1.504,0,nonword,1
5,4,28,134,0.591,1,suffix_priming,1
5,4,29,460,1.116,0,nonword,1
5,4,30,444,1.251,0,nonword,1
5,4,31,332,0.622,1,stem_priming,1
5,4,32,456,1.374,0,nonword,1
5,4,33,480,0.949,0,nonword,1
5,4,34,328,0.582,1,stem_priming,1
5,4,35,336,0.586,1,stem_priming,1
5,4,36,359,0.86,0,nonword,1
5,4,37,141,0.853,0,nonword,1
5,4,38,452,1.191,0,nonword,1
5,4,39,239,1.229,1,suffix_control,1
5,4,40,371,0.841,0,nonword,1
5,4,41,153,0.77,0,nonword,1
5,4,42,254,0.878,0,nonword,1
5,4,43,476,0.651,0,nonword,1
5,4,44,110,0.62,1,suffix_priming,1
5,4,45,118,0.863,1,suffix_priming,1
5,4,46,468,0.936,0,nonword,1
5,4,47,161,0.968,0,nonword,1
5,4,48,351,0.82,0,nonword,1
5,4,49,324,0.673,1,stem_priming,1
5,4,50,169,0.774,0,nonword,1
5,4,51,472,0.971,0,nonword,1
5,4,52,242,0.753,0,nonword,1
5,4,53,429,0.672,1,stem_control,1
5,4,54,266,0.638,0,nonword,1
5,4,55,401,0.973,1,stem_control,1
5,4,56,347,0.635,0,nonword,1
5,4,57,308,0.813,1,stem_priming,1
5,4,58,246,0.681,0,nonword,1
5,4,59,106,0.742,1,suffix_priming,1
5,4,60,355,0.939,0,nonword,1
5,4,61,102,0.702,1,suffix_priming,1
5,4,62,149,0.717,0,nonword,1
5,4,63,235,0.962,1,suffix_control,1
5,4,64,211,0.941,1,suffix_control,1
5,4,65,227,0.776,1,suffix_control,1
5,4,66,312,1.057,1,stem_priming,1
5,4,67,223,0,1,suffix_control,1
5,4,68,363,0.813,0,nonword,1
5,4,69,173,0.795,0,nonword,1
5,4,70,421,0.641,1,stem_control,1
5,4,71,367,0.707,0,nonword,1
5,4,72,278,0.612,0,nonword,1
5,4,73,405,0.733,1,stem_control,1
5,4,74,433,1.017,1,stem_control,1
5,4,75,250,0.714,0,nonword,1
5,4,76,464,0.671,0,nonword,1
5,4,77,258,0.646,0,nonword,1
5,4,78,130,0.662,1,suffix_priming,1
5,4,79,165,0.753,0,nonword,1
5,4,80,138,0.674,0,suffix_priming,0
5,4,81,437,0.703,1,stem_control,1
5,4,82,203,0.717,1,suffix_control,1
5,4,83,417,0.721,1,stem_control,1
5,4,84,448,0.662,0,nonword,1
5,4,85,340,0.716,1,stem_priming,1
5,4,86,409,0.69,1,stem_control,1
5,4,87,114,0.665,1,suffix_priming,1
5,4,88,262,0.658,0,nonword,1
5,4,89,304,0.912,1,stem_priming,1
5,4,90,343,0.812,0,nonword,1
6,1,11,371,1.067,1,nonword,0
6,1,12,125,0.716,1,suffix_priming,1
6,1,13,472,0.832,1,nonword,0
6,1,14,157,1.543,1,nonword,0
6,1,15,424,0.799,1,stem_control,1
6,1,16,456,1.203,0,nonword,1
6,1,17,145,1.035,0,nonword,1
6,1,18,218,0.799,1,suffix_control,1
6,1,19,230,0.921,1,suffix_control,1
6,1,20,117,0.723,1,suffix_priming,1
6,1,21,246,0.807,0,nonword,1
6,1,22,367,0.928,0,nonword,1
6,1,23,355,0.769,0,nonword,1
6,1,24,169,1.018,0,nonword,1
6,1,25,262,0.933,0,nonword,1
6,1,26,335,0.759,1,stem_priming,1
6,1,27,319,1.121,1,stem_priming,1
6,1,28,101,1.151,1,suffix_priming,1
6,1,29,214,0.824,1,suffix_control,1
6,1,30,416,0.934,1,stem_control,1
6,1,31,480,0.936,0,nonword,1
6,1,32,444,1.1,0,nonword,1
6,1,33,323,0.82,1,stem_priming,1
6,1,34,331,0.867,1,stem_priming,1
6,1,35,363,0.924,0,nonword,1
6,1,36,315,0.868,1,stem_priming,1
6,1,37,303,0.745,1,stem_priming,1
6,1,38,343,1.025,0,nonword,1
6,1,39,311,1.03,1,stem_priming,1
6,1,40,113,0.956,1,suffix_priming,1
6,1,41,266,0.757,0,nonword,1
6,1,42,141,1.113,0,nonword,1
6,1,43,165,0.887,0,nonword,1
6,1,44,327,0.826,1,stem_priming,1
6,1,45,464,0.922,0,nonword,1
6,1,46,258,0.911,0,nonword,1
6,1,47,222,0.999,1,suffix_control,1
6,1,48,173,0.838,0,nonword,1
6,1,49,238,0.861,1,suffix_control,1
6,1,50,452,1.212,0,nonword,1
6,1,51,351,0.938,0,nonword,1
6,1,52,121,0.801,1,suffix_priming,1
6,1,53,202,0.86,1,suffix_control,1
6,1,54,234,0.974,1,suffix_control,1
6,1,55,274,1.034,0,nonword,1
6,1,56,270,0.865,0,nonword,1
6,1,57,254,1.079,0,nonword,1
6,1,58,468,1.306,0,nonword,1
6,1,59,242,0.884,0,nonword,1
6,1,60,347,0.696,0,nonword,1
6,1,61,161,0.88,0,nonword,1
6,1,62,307,0.736,1,stem_priming,1
6,1,63,129,0.782,1,suffix_priming,1
6,1,64,408,0.954,1,stem_control,1
6,1,65,432,0.829,1,stem_control,1
6,1,66,210,0.9,1,suffix_control,1
6,1,67,105,1.025,1,suffix_priming,1
6,1,68,379,1.127,0,nonword,1
6,1,69,137,0.893,1,suffix_priming,1
6,1,70,375,0.958,0,nonword,1
6,1,71,149,1.115,0,nonword,1
6,1,72,428,0.709,0,stem_control,0
6,1,73,339,1.217,1,stem_priming,1
6,1,74,448,0.862,0,nonword,1
6,1,75,177,0.737,0,nonword,1
6,1,76,250,1.013,0,nonword,1
6,1,77,460,0.948,0,nonword,1
6,1,78,420,0.803,1,stem_control,1
6,1,79,278,0.783,0,nonword,1
6,1,80,226,0.752,1,suffix_control,1
6,1,81,206,0.814,1,suffix_control,1
6,1,82,133,0.884,1,suffix_priming,1
6,1,83,153,0.684,0,nonword,1
6,1,84,359,1.192,0,nonword,1
6,1,85,404,0.921,1,stem_control,1
6,1,86,109,0.872,1,suffix_priming,1
6,1,87,412,0.767,1,stem_control,1
6,1,88,436,0.87,1,stem_control,1
6,1,89,476,0.831,0,nonword,1
6,1,90,440,0.727,1,stem_control,1
7,2,11,480,0.837,0,nonword,1
7,2,12,444,0.822,0,nonword,1
7,2,13,464,0.858,0,nonword,1
7,2,14,205,0.842,1,suffix_control,1
7,2,15,330,0.578,1,stem_priming,1
7,2,16,262,0.651,0,nonword,1
7,2,17,452,0.75,0,nonword,1
7,2,18,213,0.572,1,suffix_control,1
7,2,19,173,0.701,0,nonword,1
7,2,20,120,0.718,1,suffix_priming,1
7,2,21,108,0.65,1,suffix_priming,1
7,2,22,153,0.877,0,nonword,1
7,2,23,427,0.493,1,stem_control,1
7,2,24,250,0.706,0,nonword,1
7,2,25,128,0.532,1,suffix_priming,1
7,2,26,104,0.563,1,suffix_priming,1
7,2,27,310,0.427,1,stem_priming,1
7,2,28,225,0.519,1,suffix_control,1
7,2,29,439,1.538,0,stem_control,0
7,2,30,278,1.763,0,nonword,1
7,2,31,169,0.724,0,nonword,1
7,2,32,314,0.77,1,stem_priming,1
7,2,33,460,0.676,0,nonword,1
7,2,34,355,0.713,0,nonword,1
7,2,35,229,0.51,1,suffix_control,1
7,2,36,266,1.152,0,nonword,1
7,2,37,375,0.636,0,nonword,1
7,2,38,351,0.981,0,nonword,1
7,2,39,343,1.008,0,nonword,1
7,2,40,237,0.613,1,suffix_control,1
7,2,41,274,0.652,0,nonword,1
7,2,42,326,0.616,1,stem_priming,1
7,2,43,318,0.51,1,stem_priming,1
7,2,44,468,1.039,0,nonword,1
7,2,45,254,0.658,0,nonword,1
7,2,46,472,0.716,0,nonword,1
7,2,47,217,0.568,1,suffix_control,1
7,2,48,136,0.565,1,suffix_priming,1
7,2,49,116,0.441,1,suffix_priming,1
7,2,50,367,1.024,0,nonword,1
7,2,51,157,0.742,0,nonword,1
7,2,52,306,0.682,1,stem_priming,1
7,2,53,476,0.679,0,nonword,1
7,2,54,141,0.628,0,nonword,1
7,2,55,338,1.068,0,stem_priming,0
7,2,56,270,0.65,0,nonword,1
7,2,57,423,0.565,1,stem_control,1
7,2,58,379,0.786,0,nonword,1
7,2,59,322,0.846,1,stem_priming,1
7,2,60,359,0.726,0,nonword,1
7,2,61,431,0.581,1,stem_control,1
7,2,62,302,0.482,1,stem_priming,1
7,2,63,242,0.646,0,nonword,1
7,2,64,149,0.614,0,nonword,1
7,2,65,165,0.66,0,nonword,1
7,2,66,201,0.527,1,suffix_control,1
7,2,67,347,0.617,0,nonword,1
7,2,68,233,0.579,1,suffix_control,1
7,2,69,363,0.519,0,nonword,1
7,2,70,415,0.498,1,stem_control,1
7,2,71,456,0.669,0,nonword,1
7,2,72,132,0.564,1,suffix_priming,1
7,2,73,177,0.681,0,nonword,1
7,2,74,124,0.688,1,suffix_priming,1
7,2,75,140,0.554,1,suffix_priming,1
7,2,76,258,1.124,0,nonword,1
7,2,77,435,0.675,1,stem_control,1
7,2,78,407,0.503,1,stem_control,1
7,2,79,221,0.459,1,suffix_control,1
7,2,80,371,0.933,0,nonword,1
7,2,81,411,0.546,1,stem_control,1
7,2,82,246,1.285,0,nonword,1
7,2,83,448,1.256,0,nonword,1
7,2,84,145,0.663,0,nonword,1
7,2,85,209,0.507,1,suffix_control,1
7,2,86,161,0.876,0,nonword,1
7,2,87,112,0.557,1,suffix_priming,1
7,2,88,403,0.434,1,stem_control,1
7,2,89,334,0.396,1,stem_priming,1
7,2,90,419,1.648,1,stem_control,1
8,3,11,212,0.711,1,suffix_control,1
8,3,12,246,1.01,0,nonword,1
8,3,13,228,0.705,1,suffix_control,1
8,3,14,141,1.486,0,nonword,1
8,3,15,262,0,0,nonword,1
8,3,16,476,1.002,0,nonword,1
8,3,17,456,1.029,1,nonword,0
8,3,18,157,1.227,1,nonword,0
8,3,19,236,1.231,1,suffix_control,1
8,3,20,468,1.567,1,nonword,0
8,3,21,232,0.759,1,suffix_control,1
8,3,22,119,0.78,1,suffix_priming,1
8,3,23,127,0.498,1,suffix_priming,1
8,3,24,107,0.672,1,suffix_priming,1
8,3,25,305,0.6,1,stem_priming,1
8,3,26,333,0.539,1,stem_priming,1
8,3,27,274,1.272,0,nonword,1
8,3,28,216,0.492,1,suffix_control,1
8,3,29,220,0.651,1,suffix_control,1
8,3,30,414,0.387,1,stem_control,1
8,3,31,145,0.526,1,nonword,0
8,3,32,329,0.692,1,stem_priming,1
8,3,33,301,0.52,1,stem_priming,1
8,3,34,103,0.558,1,suffix_priming,1
8,3,35,402,0.477,1,stem_control,1
8,3,36,444,1.002,0,nonword,1
8,3,37,266,1.106,0,nonword,1
8,3,38,242,1.857,0,nonword,1
8,3,39,321,0.596,1,stem_priming,1
8,3,40,375,0.909,0,nonword,1
8,3,41,313,0.58,1,stem_priming,1
8,3,42,410,0.695,1,stem_control,1
8,3,43,426,0.605,1,stem_control,1
8,3,44,208,0.464,1,suffix_control,1
8,3,45,123,0.594,1,suffix_priming,1
8,3,46,418,0.503,1,stem_control,1
8,3,47,343,0.499,1,nonword,0
8,3,48,278,1.143,0,nonword,1
8,3,49,460,1.022,0,nonword,1
8,3,50,161,0.535,1,nonword,0
8,3,51,173,1.842,1,nonword,0
8,3,52,422,0.779,1,stem_control,1
8,3,53,438,0.545,1,stem_control,1
8,3,54,430,0.604,1,stem_control,1
8,3,55,169,1.616,0,nonword,1
8,3,56,371,1.609,0,nonword,1
8,3,57,363,1.914,0,nonword,1
8,3,58,359,0,0,nonword,1
8,3,59,270,1.255,0,nonword,1
8,3,60,367,0,0,nonword,1
8,3,61,448,0.975,1,nonword,0
8,3,62,406,0.885,1,stem_control,1
8,3,63,149,1.196,1,nonword,0
8,3,64,224,1.074,1,suffix_control,1
8,3,65,139,0.845,1,suffix_priming,1
8,3,66,165,1.409,0,nonword,1
8,3,67,258,0,0,nonword,1
8,3,68,434,0.654,1,stem_control,1
8,3,69,325,0.456,1,stem_priming,1
8,3,70,379,0.923,0,nonword,1
8,3,71,480,0.98,0,nonword,1
8,3,72,250,1.46,0,nonword,1
8,3,73,464,1.425,0,nonword,1
8,3,74,153,0.923,0,nonword,1
8,3,75,472,1.078,0,nonword,1
8,3,76,355,0.832,0,nonword,1
8,3,77,452,0.904,1,nonword,0
8,3,78,309,0.687,1,stem_priming,1
8,3,79,337,0.718,1,stem_priming,1
8,3,80,204,0.528,1,suffix_control,1
8,3,81,177,1.091,1,nonword,0
8,3,82,135,0.542,1,suffix_priming,1
8,3,83,111,0.545,1,suffix_priming,1
8,3,84,131,0.5,1,suffix_priming,1
8,3,85,115,0.638,1,suffix_priming,1
8,3,86,240,0.761,1,suffix_control,1
8,3,87,254,0.525,1,nonword,0
8,3,88,347,0.698,0,nonword,1
8,3,89,317,0.484,1,stem_priming,1
8,3,90,351,1.14,0,nonword,1
9,4,11,320,0.831,1,stem_priming,1
9,4,12,316,0.712,1,stem_priming,1
9,4,13,177,0.899,0,nonword,1
9,4,14,231,1.238,0,suffix_control,0
9,4,15,270,1.209,0,nonword,1
9,4,16,413,0.694,1,stem_control,1
9,4,17,215,0.818,1,suffix_control,1
9,4,18,425,1.439,0,stem_control,0
9,4,19,126,1.681,1,suffix_priming,1
9,4,20,274,0.948,0,nonword,1
9,4,21,379,1.457,0,nonword,1
9,4,22,122,1.07,1,suffix_priming,1
9,4,23,219,1.799,0,suffix_control,0
9,4,24,207,0.797,1,suffix_control,1
9,4,25,145,0.924,0,nonword,1
9,4,26,157,1.161,0,nonword,1
9,4,27,375,1.649,0,nonword,1
9,4,28,134,1.198,1,suffix_priming,1
9,4,29,460,0.861,0,nonword,1
9,4,30,444,1.103,0,nonword,1
9,4,31,332,0.942,1,stem_priming,1
9,4,32,456,1.169,0,nonword,1
9,4,33,480,0.799,0,nonword,1
9,4,34,328,1.552,0,stem_priming,0
9,4,35,336,0.798,1,stem_priming,1
9,4,36,359,1.215,0,nonword,1
9,4,37,141,1.116,0,nonword,1
9,4,38,452,1.109,0,nonword,1
9,4,39,239,1.165,0,suffix_control,0
9,4,40,371,1.314,0,nonword,1
9,4,41,153,0.961,0,nonword,1
9,4,42,254,1.03,0,nonword,1
9,4,43,476,1.131,0,nonword,1
9,4,44,110,0.876,1,suffix_priming,1
9,4,45,118,0.943,1,suffix_priming,1
9,4,46,468,1.072,0,nonword,1
9,4,47,161,0.956,0,nonword,1
9,4,48,351,1.043,1,nonword,0
9,4,49,324,1.826,1,stem_priming,1
9,4,50,169,1.587,0,nonword,1
9,4,51,472,1.246,0,nonword,1
9,4,52,242,1.061,0,nonword,1
9,4,53,429,1.063,1,stem_control,1
9,4,54,266,0.808,0,nonword,1
9,4,55,401,0.878,1,stem_control,1
9,4,56,347,0.885,0,nonword,1
9,4,57,308,0.819,1,stem_priming,1
9,4,58,246,0.982,0,nonword,1
9,4,59,106,1.089,1,suffix_priming,1
9,4,60,355,0.833,0,nonword,1
9,4,61,102,0.826,1,suffix_priming,1
9,4,62,149,1.013,0,nonword,1
9,4,63,235,1.361,1,suffix_control,1
9,4,64,211,1.346,1,suffix_control,1
9,4,65,227,1.898,1,suffix_control,1
9,4,66,312,1.299,1,stem_priming,1
9,4,67,223,0.904,1,suffix_control,1
9,4,68,363,0.797,0,nonword,1
9,4,69,173,0.73,0,nonword,1
9,4,70,421,1.608,1,stem_control,1
9,4,71,367,0.854,0,nonword,1
9,4,72,278,0.656,0,nonword,1
9,4,73,405,0.642,0,stem_control,0
9,4,74,433,1.195,1,stem_control,1
9,4,75,250,0.735,0,nonword,1
9,4,76,464,1.522,0,nonword,1
9,4,77,258,0.864,0,nonword,1
9,4,78,130,1.119,1,suffix_priming,1
9,4,79,165,0.861,0,nonword,1
9,4,80,138,1.108,1,suffix_priming,1
9,4,81,437,1.145,1,stem_control,1
9,4,82,203,0.727,1,suffix_control,1
9,4,83,417,0.813,1,stem_control,1
9,4,84,448,0.756,0,nonword,1
9,4,85,340,0.793,1,stem_priming,1
9,4,86,409,0.659,1,stem_control,1
9,4,87,114,1.716,1,suffix_priming,1
9,4,88,262,0.675,0,nonword,1
9,4,89,304,1.068,1,stem_priming,1
9,4,90,343,0.872,0,nonword,1
10,1,11,371,1.265,0,nonword,1
10,1,12,125,0.896,1,suffix_priming,1
10,1,13,472,0.917,0,nonword,1
10,1,14,157,0.72,0,nonword,1
10,1,15,424,1.059,1,stem_control,1
10,1,16,456,1.154,0,nonword,1
10,1,17,145,0.924,0,nonword,1
10,1,18,218,0.712,1,suffix_control,1
10,1,19,230,0.737,1,suffix_control,1
10,1,20,117,0.753,1,suffix_priming,1
10,1,21,246,0.737,0,nonword,1
10,1,22,367,0.79,0,nonword,1
10,1,23,355,1.017,0,nonword,1
10,1,24,169,0.866,0,nonword,1
10,1,25,262,0.851,0,nonword,1
10,1,26,335,0.746,1,stem_priming,1
10,1,27,319,0.821,1,stem_priming,1
10,1,28,101,0.915,1,suffix_priming,1
10,1,29,214,0.726,1,suffix_control,1
10,1,30,416,0.622,1,stem_control,1
10,1,31,480,0.939,0,nonword,1
10,1,32,444,1.014,0,nonword,1
10,1,33,323,0.629,1,stem_priming,1
10,1,34,331,0.571,1,stem_priming,1
10,1,35,363,0.765,0,nonword,1
10,1,36,315,0.654,1,stem_priming,1
10,1,37,303,0.622,1,stem_priming,1
10,1,38,343,0.976,0,nonword,1
10,1,39,311,0.691,1,stem_priming,1
10,1,40,113,0.776,1,suffix_priming,1
10,1,41,266,0.9,0,nonword,1
10,1,42,141,1.023,0,nonword,1
10,1,43,165,1.084,0,nonword,1
10,1,44,327,1.105,1,stem_priming,1
10,1,45,464,1.007,0,nonword,1
10,1,46,258,0.782,0,nonword,1
10,1,47,222,0.664,1,suffix_control,1
10,1,48,173,0.818,0,nonword,1
10,1,49,238,0.934,0,suffix_control,0
10,1,50,452,0.887,0,nonword,1
10,1,51,351,1.168,0,nonword,1
10,1,52,121,0.78,1,suffix_priming,1
10,1,53,202,0.852,1,suffix_control,1
10,1,54,234,0.766,1,suffix_control,1
10,1,55,274,0.978,0,nonword,1
10,1,56,270,0.647,0,nonword,1
10,1,57,254,0.753,0,nonword,1
10,1,58,468,1.059,0,nonword,1
10,1,59,242,0.788,0,nonword,1
10,1,60,347,0.573,0,nonword,1
10,1,61,161,0.825,0,nonword,1
10,1,62,307,0.606,1,stem_priming,1
10,1,63,129,0.701,1,suffix_priming,1
10,1,64,408,0.8,1,stem_control,1
10,1,65,432,0.748,1,stem_control,1
10,1,66,210,0.544,1,suffix_control,1
10,1,67,105,0.696,1,suffix_priming,1
10,1,68,379,0.92,0,nonword,1
10,1,69,137,0.673,1,suffix_priming,1
10,1,70,375,0.63,0,nonword,1
10,1,71,149,0.749,0,nonword,1
10,1,72,428,0.854,1,stem_control,1
10,1,73,339,1.194,0,stem_priming,0
10,1,74,448,0.87,0,nonword,1
10,1,75,177,0.672,0,nonword,1
10,1,76,250,0.921,0,nonword,1
10,1,77,460,0.73,0,nonword,1
10,1,78,420,0.854,1,stem_control,1
10,1,79,278,0.56,0,nonword,1
10,1,80,226,0.679,1,suffix_control,1
10,1,81,206,0.699,1,suffix_control,1
10,1,82,133,0.996,1,suffix_priming,1
10,1,83,153,0.821,0,nonword,1
10,1,84,359,0.63,0,nonword,1
10,1,85,404,0.714,1,stem_control,1
10,1,86,109,0.712,1,suffix_priming,1
10,1,87,412,0.854,1,stem_control,1
10,1,88,436,0.958,1,stem_control,1
10,1,89,476,0.564,0,nonword,1
10,1,90,440,0.675,1,stem_control,1
11,2,11,480,0.996,0,nonword,1
11,2,12,444,0.94,0,nonword,1
11,2,13,464,1.145,0,nonword,1
11,2,14,205,0.957,1,suffix_control,1
11,2,15,330,0.82,1,stem_priming,1
11,2,16,262,0.871,0,nonword,1
11,2,17,452,1.177,0,nonword,1
11,2,18,213,0.997,1,suffix_control,1
11,2,19,173,0.99,0,nonword,1
11,2,20,120,1.29,1,suffix_priming,1
11,2,21,108,0.878,1,suffix_priming,1
11,2,22,153,0.733,0,nonword,1
11,2,23,427,0.852,1,stem_control,1
11,2,24,250,0.983,0,nonword,1
11,2,25,128,0.979,1,suffix_priming,1
11,2,26,104,0.968,1,suffix_priming,1
11,2,27,310,0.796,1,stem_priming,1
11,2,28,225,0.986,1,suffix_control,1
11,2,29,439,1.22,1,stem_control,1
11,2,30,278,0.792,0,nonword,1
11,2,31,169,1.388,0,nonword,1
11,2,32,314,0.864,1,stem_priming,1
11,2,33,460,0.961,0,nonword,1
11,2,34,355,1.109,0,nonword,1
11,2,35,229,0.832,1,suffix_control,1
11,2,36,266,0.887,0,nonword,1
11,2,37,375,0.908,0,nonword,1
11,2,38,351,0.865,0,nonword,1
11,2,39,343,0.983,0,nonword,1
11,2,40,237,0.894,1,suffix_control,1
11,2,41,274,1.237,0,nonword,1
11,2,42,326,0.77,1,stem_priming,1
11,2,43,318,0.772,1,stem_priming,1
11,2,44,468,1.085,0,nonword,1
11,2,45,254,1.084,0,nonword,1
11,2,46,472,1.204,0,nonword,1
11,2,47,217,0.946,1,suffix_control,1
11,2,48,136,1.06,1,suffix_priming,1
11,2,49,116,0.797,1,suffix_priming,1
11,2,50,367,0.843,0,nonword,1
11,2,51,157,0.812,0,nonword,1
11,2,52,306,1.025,1,stem_priming,1
11,2,53,476,0.718,0,nonword,1
11,2,54,141,0.794,0,nonword,1
11,2,55,338,0.903,1,stem_priming,1
11,2,56,270,0.899,0,nonword,1
11,2,57,423,0.779,1,stem_control,1
11,2,58,379,0.735,0,nonword,1
11,2,59,322,0.753,1,stem_priming,1
11,2,60,359,0.932,0,nonword,1
11,2,61,431,0.751,1,stem_control,1
11,2,62,302,0.861,1,stem_priming,1
11,2,63,242,0.82,0,nonword,1
11,2,64,149,0.903,0,nonword,1
11,2,65,165,0.933,0,nonword,1
11,2,66,201,0.909,1,suffix_control,1
11,2,67,347,0.857,0,nonword,1
11,2,68,233,0.939,1,suffix_control,1
11,2,69,363,0.847,0,nonword,1
11,2,70,415,0.67,1,stem_control,1
11,2,71,456,0.795,0,nonword,1
11,2,72,132,0.722,1,suffix_priming,1
11,2,73,177,0.678,0,nonword,1
11,2,74,124,1.125,0,suffix_priming,0
11,2,75,140,0.694,1,suffix_priming,1
11,2,76,258,0.76,0,nonword,1
11,2,77,435,0.777,1,stem_control,1
11,2,78,407,0.749,1,stem_control,1
11,2,79,221,0.985,1,suffix_control,1
11,2,80,371,1.266,0,nonword,1
11,2,81,411,0.853,1,stem_control,1
11,2,82,246,0.868,0,nonword,1
11,2,83,448,0.808,0,nonword,1
11,2,84,145,0.769,0,nonword,1
11,2,85,209,0.769,1,suffix_control,1
11,2,86,161,0.927,0,nonword,1
11,2,87,112,1.116,1,suffix_priming,1
11,2,88,403,0.702,1,stem_control,1
11,2,89,334,1.206,1,stem_priming,1
11,2,90,419,1.262,1,stem_control,1
12,3,11,212,0.835,1,suffix_control,1
12,3,12,246,0.733,0,nonword,1
12,3,13,228,0.954,1,suffix_control,1
12,3,14,141,0.815,0,nonword,1
12,3,15,262,0.912,0,nonword,1
12,3,16,476,0.736,0,nonword,1
12,3,17,456,0.966,0,nonword,1
12,3,18,157,0.661,0,nonword,1
12,3,19,236,0.764,1,suffix_control,1
12,3,20,468,0.879,0,nonword,1
12,3,21,232,0.651,1,suffix_control,1
12,3,22,119,0.874,1,suffix_priming,1
12,3,23,127,0.615,1,suffix_priming,1
12,3,24,107,0.652,1,suffix_priming,1
12,3,25,305,0.765,1,stem_priming,1
12,3,26,333,0.671,1,stem_priming,1
12,3,27,274,1.134,0,nonword,1
12,3,28,216,0.61,1,suffix_control,1
12,3,29,220,1.05,1,suffix_control,1
12,3,30,414,0.588,1,stem_control,1
12,3,31,145,0.703,0,nonword,1
12,3,32,329,0.59,1,stem_priming,1
12,3,33,301,0.566,1,stem_priming,1
12,3,34,103,0.59,1,suffix_priming,1
12,3,35,402,0.658,1,stem_control,1
12,3,36,444,0.705,0,nonword,1
12,3,37,266,0.638,0,nonword,1
12,3,38,242,0.606,1,nonword,0
12,3,39,321,0.715,1,stem_priming,1
12,3,40,375,0.743,0,nonword,1
12,3,41,313,0.716,1,stem_priming,1
12,3,42,410,0.598,1,stem_control,1
12,3,43,426,0.709,1,stem_control,1
12,3,44,208,0.551,1,suffix_control,1
12,3,45,123,0.534,1,suffix_priming,1
12,3,46,418,0.768,1,stem_control,1
12,3,47,343,0.865,0,nonword,1
12,3,48,278,0.757,0,nonword,1
12,3,49,460,0.825,0,nonword,1
12,3,50,161,0.801,0,nonword,1
12,3,51,173,0.808,0,nonword,1
12,3,52,422,0.847,1,stem_control,1
12,3,53,438,0.912,1,stem_control,1
12,3,54,430,0.567,1,stem_control,1
12,3,55,169,0.892,0,nonword,1
12,3,56,371,0.797,0,nonword,1
12,3,57,363,0.606,0,nonword,1
12,3,58,359,0.799,0,nonword,1
12,3,59,270,0.607,0,nonword,1
12,3,60,367,0.538,0,nonword,1
12,3,61,448,0.602,0,nonword,1
12,3,62,406,0.755,1,stem_control,1
12,3,63,149,0.671,0,nonword,1
12,3,64,224,0.742,1,suffix_control,1
12,3,65,139,0.913,1,suffix_priming,1
12,3,66,165,0.726,0,nonword,1
12,3,67,258,0.667,0,nonword,1
12,3,68,434,0.649,1,stem_control,1
12,3,69,325,0.62,1,stem_priming,1
12,3,70,379,0.639,0,nonword,1
12,3,71,480,0.849,0,nonword,1
12,3,72,250,0.747,0,nonword,1
12,3,73,464,0.985,0,nonword,1
12,3,74,153,0.635,0,nonword,1
12,3,75,472,0.91,0,nonword,1
12,3,76,355,0.61,0,nonword,1
12,3,77,452,0.652,0,nonword,1
12,3,78,309,0.641,1,stem_priming,1
12,3,79,337,0.949,1,stem_priming,1
12,3,80,204,0.881,1,suffix_control,1
12,3,81,177,0.65,0,nonword,1
12,3,82,135,0.799,1,suffix_priming,1
12,3,83,111,0.759,1,suffix_priming,1
12,3,84,131,0.651,1,suffix_priming,1
12,3,85,115,0.705,1,suffix_priming,1
12,3,86,240,0.732,1,suffix_control,1
12,3,87,254,0.806,0,nonword,1
12,3,88,347,0.628,0,nonword,1
12,3,89,317,0.649,1,stem_priming,1
12,3,90,351,0.718,0,nonword,1
13,4,11,320,0.841,1,stem_priming,1
13,4,12,316,0.565,1,stem_priming,1
13,4,13,177,0.672,0,nonword,1
13,4,14,231,0.532,1,suffix_control,1
13,4,15,270,0.693,1,nonword,0
13,4,16,413,0.957,1,stem_control,1
13,4,17,215,0.529,1,suffix_control,1
13,4,18,425,0.694,1,stem_control,1
13,4,19,126,0.791,0,suffix_priming,0
13,4,20,274,0.6,1,nonword,0
13,4,21,379,0.777,1,nonword,0
13,4,22,122,0.769,1,suffix_priming,1
13,4,23,219,0.778,0,suffix_control,0
13,4,24,207,0.553,1,suffix_control,1
13,4,25,145,1.048,0,nonword,1
13,4,26,157,0.628,0,nonword,1
13,4,27,375,0.813,1,nonword,0
13,4,28,134,0.68,1,suffix_priming,1
13,4,29,460,1.243,0,nonword,1
13,4,30,444,0.958,1,nonword,0
13,4,31,332,0.757,1,stem_priming,1
13,4,32,456,0.688,0,nonword,1
13,4,33,480,1.38,0,nonword,1
13,4,34,328,0.714,1,stem_priming,1
13,4,35,336,0.7,1,stem_priming,1
13,4,36,359,0.583,1,nonword,0
13,4,37,141,0.602,1,nonword,0
13,4,38,452,0.603,0,nonword,1
13,4,39,239,0.835,1,suffix_control,1
13,4,40,371,0.714,1,nonword,0
13,4,41,153,0.57,1,nonword,0
13,4,42,254,0.638,1,nonword,0
13,4,43,476,0.579,0,nonword,1
13,4,44,110,0.596,1,suffix_priming,1
13,4,45,118,0.749,0,suffix_priming,0
13,4,46,468,0.656,1,nonword,0
13,4,47,161,0.874,0,nonword,1
13,4,48,351,1.071,1,nonword,0
13,4,49,324,1.717,0,stem_priming,0
13,4,50,169,1.402,0,nonword,1
13,4,51,472,0.855,1,nonword,0
13,4,52,242,0.713,1,nonword,0
13,4,53,429,0.774,1,stem_control,1
13,4,54,266,0.531,0,nonword,1
13,4,55,401,0.723,0,stem_control,0
13,4,56,347,0.745,0,nonword,1
13,4,57,308,0.507,1,stem_priming,1
13,4,58,246,0.656,0,nonword,1
13,4,59,106,0.677,1,suffix_priming,1
13,4,60,355,1.09,0,nonword,1
13,4,61,102,0.664,1,suffix_priming,1
13,4,62,149,0.425,0,nonword,1
13,4,63,235,0.782,1,suffix_control,1
13,4,64,211,0.706,1,suffix_control,1
13,4,65,227,0.596,1,suffix_control,1
13,4,66,312,0.926,1,stem_priming,1
13,4,67,223,0.766,1,suffix_control,1
13,4,68,363,0.786,0,nonword,1
13,4,69,173,0.545,1,nonword,0
13,4,70,421,0.625,1,stem_control,1
13,4,71,367,1.47,0,nonword,1
13,4,72,278,0.954,0,nonword,1
13,4,73,405,0.642,0,stem_control,0
13,4,74,433,0.847,1,stem_control,1
13,4,75,250,0.745,1,nonword,0
13,4,76,464,1.002,1,nonword,0
13,4,77,258,1.046,0,nonword,1
13,4,78,130,0.723,1,suffix_priming,1
13,4,79,165,0.588,1,nonword,0
13,4,80,138,0.917,0,suffix_priming,0
13,4,81,437,0.758,1,stem_control,1
13,4,82,203,0.732,1,suffix_control,1
13,4,83,417,0.725,1,stem_control,1
13,4,84,448,0.592,0,nonword,1
13,4,85,340,0.573,1,stem_priming,1
13,4,86,409,0.789,1,stem_control,1
13,4,87,114,0.64,1,suffix_priming,1
13,4,88,262,0.782,0,nonword,1
13,4,89,304,0.538,1,stem_priming,1
13,4,90,343,0.603,1,nonword,0
14,1,11,371,0.916,0,nonword,1
14,1,12,125,0.741,1,suffix_priming,1
14,1,13,472,0.982,0,nonword,1
14,1,14,157,0.97,0,nonword,1
14,1,15,424,0.714,0,stem_control,0
14,1,16,456,0.713,0,nonword,1
14,1,17,145,0.735,0,nonword,1
14,1,18,218,0.788,1,suffix_control,1
14,1,19,230,0.574,1,suffix_control,1
14,1,20,117,0.655,1,suffix_priming,1
14,1,21,246,0.689,0,nonword,1
14,1,22,367,0.665,0,nonword,1
14,1,23,355,0.649,0,nonword,1
14,1,24,169,1.228,0,nonword,1
14,1,25,262,0.82,0,nonword,1
14,1,26,335,0.741,1,stem_priming,1
14,1,27,319,0.766,1,stem_priming,1
14,1,28,101,1.132,1,suffix_priming,1
14,1,29,214,0.748,1,suffix_control,1
14,1,30,416,0.576,1,stem_control,1
14,1,31,480,0.857,0,nonword,1
14,1,32,444,0.887,0,nonword,1
14,1,33,323,0.768,1,stem_priming,1
14,1,34,331,0.58,1,stem_priming,1
14,1,35,363,0.727,0,nonword,1
14,1,36,315,0.515,1,stem_priming,1
14,1,37,303,0.722,1,stem_priming,1
14,1,38,343,0.906,0,nonword,1
14,1,39,311,0.697,1,stem_priming,1
14,1,40,113,0.802,1,suffix_priming,1
14,1,41,266,0.682,0,nonword,1
14,1,42,141,0.685,0,nonword,1
14,1,43,165,0.851,0,nonword,1
14,1,44,327,0.595,1,stem_priming,1
14,1,45,464,0.633,0,nonword,1
14,1,46,258,0.624,0,nonword,1
14,1,47,222,0.698,1,suffix_control,1
14,1,48,173,0.804,0,nonword,1
14,1,49,238,0.702,1,suffix_control,1
14,1,50,452,0.996,0,nonword,1
14,1,51,351,0.864,0,nonword,1
14,1,52,121,0.723,1,suffix_priming,1
14,1,53,202,0.755,1,suffix_control,1
14,1,54,234,0.598,1,suffix_control,1
14,1,55,274,0.885,0,nonword,1
14,1,56,270,0.849,0,nonword,1
14,1,57,254,0.736,0,nonword,1
14,1,58,468,0.713,1,nonword,0
14,1,59,242,0.952,0,nonword,1
14,1,60,347,0.856,0,nonword,1
14,1,61,161,1.18,0,nonword,1
14,1,62,307,0.65,1,stem_priming,1
14,1,63,129,0.821,1,suffix_priming,1
14,1,64,408,0.828,0,stem_control,0
14,1,65,432,0.65,1,stem_control,1
14,1,66,210,0.622,1,suffix_control,1
14,1,67,105,0.802,0,suffix_priming,0
14,1,68,379,1.157,0,nonword,1
14,1,69,137,0.77,1,suffix_priming,1
14,1,70,375,0.9,0,nonword,1
14,1,71,149,0.892,0,nonword,1
14,1,72,428,0.702,1,stem_control,1
14,1,73,339,1.646,1,stem_priming,1
14,1,74,448,0.817,0,nonword,1
14,1,75,177,0.759,0,nonword,1
14,1,76,250,1.088,0,nonword,1
14,1,77,460,1.037,0,nonword,1
14,1,78,420,0.843,1,stem_control,1
14,1,79,278,0.718,0,nonword,1
14,1,80,226,0.648,1,suffix_control,1
14,1,81,206,1.028,1,suffix_control,1
14,1,82,133,0.66,1,suffix_priming,1
14,1,83,153,0.79,0,nonword,1
14,1,84,359,0.769,0,nonword,1
14,1,85,404,0.583,1,stem_control,1
14,1,86,109,0.688,1,suffix_priming,1
14,1,87,412,0.556,1,stem_control,1
14,1,88,436,0.481,1,stem_control,1
14,1,89,476,0.674,0,nonword,1
14,1,90,440,0.615,1,stem_control,1
15,1,11,371,0.985,0,nonword,1
15,1,12,125,0.945,1,suffix_priming,1
15,1,13,472,1.369,0,nonword,1
15,1,14,157,1.147,0,nonword,1
15,1,15,424,1.274,1,stem_control,1
15,1,16,456,1.186,0,nonword,1
15,1,17,145,1.045,0,nonword,1
15,1,18,218,0.924,1,suffix_control,1
15,1,19,230,0.926,1,suffix_control,1
15,1,20,117,0.821,1,suffix_priming,1
15,1,21,246,1.096,0,nonword,1
15,1,22,367,1.281,0,nonword,1
15,1,23,355,1.479,0,nonword,1
15,1,24,169,1.146,0,nonword,1
15,1,25,262,1.576,0,nonword,1
15,1,26,335,0.954,1,stem_priming,1
15,1,27,319,0.749,1,stem_priming,1
15,1,28,101,1.237,0,suffix_priming,0
15,1,29,214,0.971,1,suffix_control,1
15,1,30,416,0.734,1,stem_control,1
15,1,31,480,1.689,0,nonword,1
15,1,32,444,0.941,1,nonword,0
15,1,33,323,0.98,1,stem_priming,1
15,1,34,331,0.762,1,stem_priming,1
15,1,35,363,1.712,0,nonword,1
15,1,36,315,0.799,1,stem_priming,1
15,1,37,303,0.947,1,stem_priming,1
15,1,38,343,1.309,0,nonword,1
15,1,39,311,0.971,1,stem_priming,1
15,1,40,113,0,1,suffix_priming,1
15,1,41,266,0.872,0,nonword,1
15,1,42,141,0.788,0,nonword,1
15,1,43,165,1.055,0,nonword,1
15,1,44,327,0.782,1,stem_priming,1
15,1,45,464,0.832,0,nonword,1
15,1,46,258,0.945,0,nonword,1
15,1,47,222,1.258,1,suffix_control,1
15,1,48,173,1.059,0,nonword,1
15,1,49,238,0.865,1,suffix_control,1
15,1,50,452,1.495,0,nonword,1
15,1,51,351,1.246,0,nonword,1
15,1,52,121,0.948,1,suffix_priming,1
15,1,53,202,1.393,1,suffix_control,1
15,1,54,234,0.766,1,suffix_control,1
15,1,55,274,1.066,0,nonword,1
15,1,56,270,1.136,0,nonword,1
15,1,57,254,1.564,0,nonword,1
15,1,58,468,1.273,1,nonword,0
15,1,59,242,1.338,0,nonword,1
15,1,60,347,0.907,0,nonword,1
15,1,61,161,1.686,1,nonword,0
15,1,62,307,0.788,1,stem_priming,1
15,1,63,129,0.87,1,suffix_priming,1
15,1,64,408,1.162,1,stem_control,1
15,1,65,432,1.023,1,stem_control,1
15,1,66,210,0.825,1,suffix_control,1
15,1,67,105,1.082,0,suffix_priming,0
15,1,68,379,1.06,0,nonword,1
15,1,69,137,1.352,1,suffix_priming,1
15,1,70,375,1.611,0,nonword,1
15,1,71,149,1.628,0,nonword,1
15,1,72,428,1.615,0,stem_control,0
15,1,73,339,1.433,1,stem_priming,1
15,1,74,448,1.604,0,nonword,1
15,1,75,177,1.227,0,nonword,1
15,1,76,250,1.57,0,nonword,1
15,1,77,460,1.889,0,nonword,1
15,1,78,420,1.158,1,stem_control,1
15,1,79,278,0.948,0,nonword,1
15,1,80,226,0.911,1,suffix_control,1
15,1,81,206,1.038,1,suffix_control,1
15,1,82,133,0.906,1,suffix_priming,1
15,1,83,153,1.451,0,nonword,1
15,1,84,359,0,0,nonword,1
15,1,85,404,1.129,1,stem_control,1
15,1,86,109,1.239,1,suffix_priming,1
15,1,87,412,0.992,1,stem_control,1
15,1,88,436,0.841,1,stem_control,1
15,1,89,476,1.045,0,nonword,1
15,1,90,440,1.164,1,stem_control,1
16,3,11,321,0.749,1,stem_priming,1
16,3,12,204,0.64,1,suffix_control,1
16,3,13,472,0.772,1,nonword,0
16,3,14,119,1.21,1,suffix_priming,1
16,3,15,317,0.519,1,stem_priming,1
16,3,16,452,0.665,0,nonword,1
16,3,17,444,0.719,1,nonword,0
16,3,18,406,0.613,1,stem_control,1
16,3,19,418,0.632,1,stem_control,1
16,3,20,246,0.8,0,nonword,1
16,3,21,422,0.588,1,stem_control,1
16,3,22,161,0.77,0,nonword,1
16,3,23,480,0.872,0,nonword,1
16,3,24,456,0.791,0,nonword,1
16,3,25,173,0.639,0,nonword,1
16,3,26,127,0.648,1,suffix_priming,1
16,3,27,141,0.68,0,nonword,1
16,3,28,254,0.611,0,nonword,1
16,3,29,135,0.794,1,suffix_priming,1
16,3,30,270,0.84,0,nonword,1
16,3,31,236,0.651,1,suffix_control,1
16,3,32,212,0.604,1,suffix_control,1
16,3,33,240,0.601,1,suffix_control,1
16,3,34,232,0.574,1,suffix_control,1
16,3,35,430,0.542,1,stem_control,1
16,3,36,258,0.707,0,nonword,1
16,3,37,169,0.893,0,nonword,1
16,3,38,438,0.681,1,stem_control,1
16,3,39,228,0.653,0,suffix_control,0
16,3,40,325,0.617,1,stem_priming,1
16,3,41,242,0.645,0,nonword,1
16,3,42,145,0.631,0,nonword,1
16,3,43,220,0.743,1,suffix_control,1
16,3,44,460,0.619,0,nonword,1
16,3,45,426,0.521,1,stem_control,1
16,3,46,448,0.669,0,nonword,1
16,3,47,329,0.663,1,stem_priming,1
16,3,48,165,0.657,0,nonword,1
16,3,49,111,0.749,1,suffix_priming,1
16,3,50,107,0.489,1,suffix_priming,1
16,3,51,313,0.754,1,stem_priming,1
16,3,52,177,0.663,0,nonword,1
16,3,53,216,0.587,1,suffix_control,1
16,3,54,278,0.561,0,nonword,1
16,3,55,355,0.635,0,nonword,1
16,3,56,351,0.943,0,nonword,1
16,3,57,153,0.858,0,nonword,1
16,3,58,157,0.799,0,nonword,1
16,3,59,266,0.7,0,nonword,1
16,3,60,115,0.638,1,suffix_priming,1
16,3,61,468,0.621,1,nonword,0
16,3,62,347,0.827,0,nonword,1
16,3,63,309,0.96,1,stem_priming,1
16,3,64,359,0.729,0,nonword,1
16,3,65,139,0.677,0,suffix_priming,0
16,3,66,224,0.596,1,suffix_control,1
16,3,67,375,0.656,0,nonword,1
16,3,68,371,0.817,0,nonword,1
16,3,69,402,0.594,1,stem_control,1
16,3,70,476,0.555,0,nonword,1
16,3,71,434,0.597,1,stem_control,1
16,3,72,131,0.675,1,suffix_priming,1
16,3,73,208,0.576,1,suffix_control,1
16,3,74,363,0.685,0,nonword,1
16,3,75,149,0.646,0,nonword,1
16,3,76,379,0.85,0,nonword,1
16,3,77,262,0.742,0,nonword,1
16,3,78,464,1.064,0,nonword,1
16,3,79,274,0.803,0,nonword,1
16,3,80,305,0.731,0,stem_priming,0
16,3,81,343,0.815,0,nonword,1
16,3,82,333,0.651,1,stem_priming,1
16,3,83,414,0.519,1,stem_control,1
16,3,84,301,0.541,1,stem_priming,1
16,3,85,103,0.511,1,suffix_priming,1
16,3,86,337,0.528,1,stem_priming,1
16,3,87,123,0.653,1,suffix_priming,1
16,3,88,250,0.775,0,nonword,1
16,3,89,410,0.621,1,stem_control,1
16,3,90,367,0.688,0,nonword,1
17,4,11,320,1.674,1,stem_priming,1
17,4,12,316,1.151,1,stem_priming,1
17,4,13,177,1.012,0,nonword,1
17,4,14,231,1.211,1,suffix_control,1
17,4,15,270,1.184,0,nonword,1
17,4,16,413,1.143,1,stem_control,1
17,4,17,215,1.035,1,suffix_control,1
17,4,18,425,1.647,1,stem_control,1
17,4,19,126,1.554,1,suffix_priming,1
17,4,20,274,1.036,0,nonword,1
17,4,21,379,1.259,0,nonword,1
17,4,22,122,1.557,1,suffix_priming,1
17,4,23,219,1.554,1,suffix_control,1
17,4,24,207,1.344,1,suffix_control,1
17,4,25,145,1.125,0,nonword,1
17,4,26,157,1.312,0,nonword,1
17,4,27,375,1.435,0,nonword,1
17,4,28,134,0.891,1,suffix_priming,1
17,4,29,460,1.311,0,nonword,1
17,4,30,444,1.186,0,nonword,1
17,4,31,332,0.872,1,stem_priming,1
17,4,32,456,1.513,0,nonword,1
17,4,33,480,1.607,0,nonword,1
17,4,34,328,0.923,1,stem_priming,1
17,4,35,336,0.741,1,stem_priming,1
17,4,36,359,1.578,0,nonword,1
17,4,37,141,1.16,0,nonword,1
17,4,38,452,1.59,1,nonword,0
17,4,39,239,1.8,1,suffix_control,1
17,4,40,371,1.054,0,nonword,1
17,4,41,153,1.226,0,nonword,1
17,4,42,254,1.376,0,nonword,1
17,4,43,476,1.166,0,nonword,1
17,4,44,110,0.742,1,suffix_priming,1
17,4,45,118,0.972,1,suffix_priming,1
17,4,46,468,0.967,0,nonword,1
17,4,47,161,1.469,0,nonword,1
17,4,48,351,1.294,0,nonword,1
17,4,49,324,1.122,1,stem_priming,1
17,4,50,169,1.872,0,nonword,1
17,4,51,472,1.444,0,nonword,1
17,4,52,242,1.439,0,nonword,1
17,4,53,429,1.282,1,stem_control,1
17,4,54,266,1.04,0,nonword,1
17,4,55,401,1.284,1,stem_control,1
17,4,56,347,1.119,0,nonword,1
17,4,57,308,1.093,1,stem_priming,1
17,4,58,246,1.334,0,nonword,1
17,4,59,106,0.914,1,suffix_priming,1
17,4,60,355,1.091,0,nonword,1
17,4,61,102,1.034,1,suffix_priming,1
17,4,62,149,1.251,0,nonword,1
17,4,63,235,1.21,0,suffix_control,0
17,4,64,211,1.107,1,suffix_control,1
17,4,65,227,0.965,1,suffix_control,1
17,4,66,312,1.01,1,stem_priming,1
17,4,67,223,1.163,1,suffix_control,1
17,4,68,363,1.511,0,nonword,1
17,4,69,173,1.133,0,nonword,1
17,4,70,421,0.801,1,stem_control,1
17,4,71,367,1.194,0,nonword,1
17,4,72,278,1.299,1,nonword,0
17,4,73,405,0.859,1,stem_control,1
17,4,74,433,1.027,1,stem_control,1
17,4,75,250,0.908,0,nonword,1
17,4,76,464,1.304,0,nonword,1
17,4,77,258,1.386,0,nonword,1
17,4,78,130,0.81,1,suffix_priming,1
17,4,79,165,1.03,0,nonword,1
17,4,80,138,1.164,1,suffix_priming,1
17,4,81,437,1.044,1,stem_control,1
17,4,82,203,0.783,1,suffix_control,1
17,4,83,417,0.919,1,stem_control,1
17,4,84,448,0.931,0,nonword,1
17,4,85,340,0.793,1,stem_priming,1
17,4,86,409,0.945,1,stem_control,1
17,4,87,114,0.801,1,suffix_priming,1
17,4,88,262,0.91,0,nonword,1
17,4,89,304,1.036,1,stem_priming,1
17,4,90,343,1.148,0,nonword,1
18,1,11,371,1.5,0,nonword,1
18,1,12,125,0.881,1,suffix_priming,1
18,1,13,472,0.841,1,nonword,0
18,1,14,157,0.698,0,nonword,1
18,1,15,424,1.104,1,stem_control,1
18,1,16,456,0.885,0,nonword,1
18,1,17,145,0.89,0,nonword,1
18,1,18,218,0.898,1,suffix_control,1
18,1,19,230,0.905,1,suffix_control,1
18,1,20,117,1.085,0,suffix_priming,0
18,1,21,246,0.953,0,nonword,1
18,1,22,367,1.289,0,nonword,1
18,1,23,355,1.156,1,nonword,0
18,1,24,169,0.894,1,nonword,0
18,1,25,262,1.364,0,nonword,1
18,1,26,335,0.923,1,stem_priming,1
18,1,27,319,0.832,1,stem_priming,1
18,1,28,101,1.396,0,suffix_priming,0
18,1,29,214,0.813,1,suffix_control,1
18,1,30,416,0.679,1,stem_control,1
18,1,31,480,0.984,0,nonword,1
18,1,32,444,1.113,0,nonword,1
18,1,33,323,1.089,1,stem_priming,1
18,1,34,331,0.691,1,stem_priming,1
18,1,35,363,1.237,0,nonword,1
18,1,36,315,0.687,1,stem_priming,1
18,1,37,303,0.661,1,stem_priming,1
18,1,38,343,0.957,0,nonword,1
18,1,39,311,0.658,1,stem_priming,1
18,1,40,113,1.212,0,suffix_priming,0
18,1,41,266,0.744,0,nonword,1
18,1,42,141,1.175,0,nonword,1
18,1,43,165,1.43,0,nonword,1
18,1,44,327,0.726,1,stem_priming,1
18,1,45,464,1.102,0,nonword,1
18,1,46,258,1.582,0,nonword,1
18,1,47,222,0.909,1,suffix_control,1
18,1,48,173,0.801,1,nonword,0
18,1,49,238,0.917,1,suffix_control,1
18,1,50,452,1.271,0,nonword,1
18,1,51,351,1.3,0,nonword,1
18,1,52,121,1.031,1,suffix_priming,1
18,1,53,202,0.962,1,suffix_control,1
18,1,54,234,0.851,1,suffix_control,1
18,1,55,274,1.041,0,nonword,1
18,1,56,270,1.425,0,nonword,1
18,1,57,254,1.185,0,nonword,1
18,1,58,468,0.657,1,nonword,0
18,1,59,242,1.333,0,nonword,1
18,1,60,347,1.091,0,nonword,1
18,1,61,161,1.449,0,nonword,1
18,1,62,307,0.905,1,stem_priming,1
18,1,63,129,0.972,1,suffix_priming,1
18,1,64,408,0.905,1,stem_control,1
18,1,65,432,0.65,1,stem_control,1
18,1,66,210,0.917,1,suffix_control,1
18,1,67,105,0.952,1,suffix_priming,1
18,1,68,379,1.213,0,nonword,1
18,1,69,137,0.615,1,suffix_priming,1
18,1,70,375,1.331,0,nonword,1
18,1,71,149,1.176,0,nonword,1
18,1,72,428,0.87,1,stem_control,1
18,1,73,339,1.093,0,stem_priming,0
18,1,74,448,1.267,0,nonword,1
18,1,75,177,1.255,1,nonword,0
18,1,76,250,0,1,nonword,0
18,1,77,460,1.073,0,nonword,1
18,1,78,420,1.025,1,stem_control,1
18,1,79,278,1.22,0,nonword,1
18,1,80,226,0.717,1,suffix_control,1
18,1,81,206,1.012,1,suffix_control,1
18,1,82,133,1.344,1,suffix_priming,1
18,1,83,153,1.193,0,nonword,1
18,1,84,359,1.745,0,nonword,1
18,1,85,404,0.939,1,stem_control,1
18,1,86,109,0.719,1,suffix_priming,1
18,1,87,412,0.923,1,stem_control,1
18,1,88,436,0.982,1,stem_control,1
18,1,89,476,1.566,0,nonword,1
18,1,90,440,0.627,1,stem_control,1
19,2,11,480,0.848,0,nonword,1
19,2,12,444,0.785,0,nonword,1
19,2,13,464,0.746,0,nonword,1
19,2,14,205,0.59,0,suffix_control,0
19,2,15,330,0.677,1,stem_priming,1
19,2,16,262,0.843,0,nonword,1
19,2,17,452,1.023,0,nonword,1
19,2,18,213,0.678,1,suffix_control,1
19,2,19,173,1.081,0,nonword,1
19,2,20,120,0.882,1,suffix_priming,1
19,2,21,108,0.524,1,suffix_priming,1
19,2,22,153,0.741,0,nonword,1
19,2,23,427,0.797,1,stem_control,1
19,2,24,250,1.03,1,nonword,0
19,2,25,128,0.931,1,suffix_priming,1
19,2,26,104,0.993,1,suffix_priming,1
19,2,27,310,0.522,1,stem_priming,1
19,2,28,225,0.863,1,suffix_control,1
19,2,29,439,1.079,1,stem_control,1
19,2,30,278,0.952,0,nonword,1
19,2,31,169,1.369,0,nonword,1
19,2,32,314,0.979,1,stem_priming,1
19,2,33,460,0.794,0,nonword,1
19,2,34,355,0.749,0,nonword,1
19,2,35,229,0.802,1,suffix_control,1
19,2,36,266,0.742,0,nonword,1
19,2,37,375,0.736,0,nonword,1
19,2,38,351,1.012,1,nonword,0
19,2,39,343,1.3,0,nonword,1
19,2,40,237,1.154,1,suffix_control,1
19,2,41,274,1.116,0,nonword,1
19,2,42,326,0.922,1,stem_priming,1
19,2,43,318,0.672,1,stem_priming,1
19,2,44,468,1.26,0,nonword,1
19,2,45,254,1.068,0,nonword,1
19,2,46,472,1.143,1,nonword,0
19,2,47,217,0.871,1,suffix_control,1
19,2,48,136,1.309,1,suffix_priming,1
19,2,49,116,0.625,1,suffix_priming,1
19,2,50,367,1.051,0,nonword,1
19,2,51,157,0.842,0,nonword,1
19,2,52,306,0.699,1,stem_priming,1
19,2,53,476,0.664,0,nonword,1
19,2,54,141,0.688,0,nonword,1
19,2,55,338,1.057,1,stem_priming,1
19,2,56,270,1.113,0,nonword,1
19,2,57,423,0.664,1,stem_control,1
19,2,58,379,0.959,0,nonword,1
19,2,59,322,0.937,1,stem_priming,1
19,2,60,359,1.222,0,nonword,1
19,2,61,431,0.789,1,stem_control,1
19,2,62,302,0.791,1,stem_priming,1
19,2,63,242,0.992,0,nonword,1
19,2,64,149,0.883,1,nonword,0
19,2,65,165,1.099,0,nonword,1
19,2,66,201,1.641,0,suffix_control,0
19,2,67,347,1.204,0,nonword,1
19,2,68,233,0.799,1,suffix_control,1
19,2,69,363,1.248,0,nonword,1
19,2,70,415,0.686,1,stem_control,1
19,2,71,456,0.868,0,nonword,1
19,2,72,132,0.711,1,suffix_priming,1
19,2,73,177,0.741,0,nonword,1
19,2,74,124,0.889,1,suffix_priming,1
19,2,75,140,0.84,1,suffix_priming,1
19,2,76,258,0.971,0,nonword,1
19,2,77,435,0.744,1,stem_control,1
19,2,78,407,0.858,1,stem_control,1
19,2,79,221,1.082,1,suffix_control,1
19,2,80,371,0.948,0,nonword,1
19,2,81,411,0.735,1,stem_control,1
19,2,82,246,0.772,0,nonword,1
19,2,83,448,0.861,0,nonword,1
19,2,84,145,0.896,0,nonword,1
19,2,85,209,0.776,1,suffix_control,1
19,2,86,161,1.42,0,nonword,1
19,2,87,112,0.977,1,suffix_priming,1
19,2,88,403,1.139,1,stem_control,1
19,2,89,334,0.918,1,stem_priming,1
19,2,90,419,0.906,1,stem_control,1
20,3,11,212,0.678,1,suffix_control,1
20,3,12,246,0.631,0,nonword,1
20,3,13,228,0.744,1,suffix_control,1
20,3,14,141,0.816,0,nonword,1
20,3,15,262,0.654,0,nonword,1
20,3,16,476,0.973,1,nonword,0
20,3,17,456,1.087,0,nonword,1
20,3,18,157,0.688,0,nonword,1
20,3,19,236,0.798,1,suffix_control,1
20,3,20,468,0.961,0,nonword,1
20,3,21,232,0.878,1,suffix_control,1
20,3,22,119,1.603,0,suffix_priming,0
20,3,23,127,0.598,1,suffix_priming,1
20,3,24,107,0.507,1,suffix_priming,1
20,3,25,305,0.629,1,stem_priming,1
20,3,26,333,0.552,1,stem_priming,1
20,3,27,274,0.839,0,nonword,1
20,3,28,216,0.842,1,suffix_control,1
20,3,29,220,0.69,1,suffix_control,1
20,3,30,414,0.569,1,stem_control,1
20,3,31,145,0.667,0,nonword,1
20,3,32,329,0.583,1,stem_priming,1
20,3,33,301,0.541,1,stem_priming,1
20,3,34,103,0.534,1,suffix_priming,1
20,3,35,402,0.677,1,stem_control,1
20,3,36,444,1.148,0,nonword,1
20,3,37,266,0.964,0,nonword,1
20,3,38,242,0.757,0,nonword,1
20,3,39,321,0.579,1,stem_priming,1
20,3,40,375,0.595,0,nonword,1
20,3,41,313,0.574,1,stem_priming,1
20,3,42,410,0.56,1,stem_control,1
20,3,43,426,0.626,1,stem_control,1
20,3,44,208,0.662,1,suffix_control,1
20,3,45,123,0.629,1,suffix_priming,1
20,3,46,418,0.523,1,stem_control,1
20,3,47,343,0.858,0,nonword,1
20,3,48,278,0.854,0,nonword,1
20,3,49,460,1.109,0,nonword,1
20,3,50,161,0.698,0,nonword,1
20,3,51,173,1.021,0,nonword,1
20,3,52,422,0.926,1,stem_control,1
20,3,53,438,0.658,1,stem_control,1
20,3,54,430,0.489,1,stem_control,1
20,3,55,169,0.743,0,nonword,1
20,3,56,371,0.84,0,nonword,1
20,3,57,363,0.879,0,nonword,1
20,3,58,359,0.689,0,nonword,1
20,3,59,270,1.281,0,nonword,1
20,3,60,367,1.069,0,nonword,1
20,3,61,448,0.664,0,nonword,1
20,3,62,406,0.851,1,stem_control,1
20,3,63,149,0.651,0,nonword,1
20,3,64,224,0.592,1,suffix_control,1
20,3,65,139,0.976,1,suffix_priming,1
20,3,66,165,0.69,0,nonword,1
20,3,67,258,0.695,0,nonword,1
20,3,68,434,0.582,1,stem_control,1
20,3,69,325,0.604,1,stem_priming,1
20,3,70,379,0.587,0,nonword,1
20,3,71,480,0.663,0,nonword,1
20,3,72,250,0.628,0,nonword,1
20,3,73,464,0.731,0,nonword,1
20,3,74,153,1.01,0,nonword,1
20,3,75,472,0.891,0,nonword,1
20,3,76,355,0.917,0,nonword,1
20,3,77,452,0.584,0,nonword,1
20,3,78,309,0.58,1,stem_priming,1
20,3,79,337,0.483,1,stem_priming,1
20,3,80,204,0.558,1,suffix_control,1
20,3,81,177,0.608,0,nonword,1
20,3,82,135,0.649,1,suffix_priming,1
20,3,83,111,0.769,1,suffix_priming,1
20,3,84,131,0.661,1,suffix_priming,1
20,3,85,115,0.635,1,suffix_priming,1
20,3,86,240,1.048,1,suffix_control,1
20,3,87,254,0.921,0,nonword,1
20,3,88,347,0.68,1,nonword,0
20,3,89,317,0.518,1,stem_priming,1
20,3,90,351,0.659,0,nonword,1
21,4,11,320,0.771,0,stem_priming,0
21,4,12,316,0.685,1,stem_priming,1
21,4,13,177,0.81,0,nonword,1
21,4,14,231,0.821,1,suffix_control,1
21,4,15,270,0.966,0,nonword,1
21,4,16,413,0.641,1,stem_control,1
21,4,17,215,0.634,1,suffix_control,1
21,4,18,425,0.769,1,stem_control,1
21,4,19,126,0.658,1,suffix_priming,1
21,4,20,274,0.694,0,nonword,1
21,4,21,379,0.761,0,nonword,1
21,4,22,122,0.725,1,suffix_priming,1
21,4,23,219,0.794,1,suffix_control,1
21,4,24,207,0.806,1,suffix_control,1
21,4,25,145,0.817,0,nonword,1
21,4,26,157,0.692,0,nonword,1
21,4,27,375,0.739,0,nonword,1
21,4,28,134,0.654,1,suffix_priming,1
21,4,29,460,0.657,0,nonword,1
21,4,30,444,0.719,0,nonword,1
21,4,31,332,0.618,1,stem_priming,1
21,4,32,456,0.676,0,nonword,1
21,4,33,480,0.708,0,nonword,1
21,4,34,328,0.647,1,stem_priming,1
21,4,35,336,0.659,1,stem_priming,1
21,4,36,359,0.878,0,nonword,1
21,4,37,141,0.745,0,nonword,1
21,4,38,452,0.688,0,nonword,1
21,4,39,239,1.173,1,suffix_control,1
21,4,40,371,0.997,0,nonword,1
21,4,41,153,0.736,0,nonword,1
21,4,42,254,0.805,0,nonword,1
21,4,43,476,0.927,0,nonword,1
21,4,44,110,0.721,1,suffix_priming,1
21,4,45,118,0.629,1,suffix_priming,1
21,4,46,468,0.926,0,nonword,1
21,4,47,161,0.891,0,nonword,1
21,4,48,351,0.777,0,nonword,1
21,4,49,324,1.483,1,stem_priming,1
21,4,50,169,0.864,0,nonword,1
21,4,51,472,0.845,0,nonword,1
21,4,52,242,0.73,0,nonword,1
21,4,53,429,1.104,1,stem_control,1
21,4,54,266,0.709,0,nonword,1
21,4,55,401,1.023,1,stem_control,1
21,4,56,347,0.616,0,nonword,1
21,4,57,308,0.663,1,stem_priming,1
21,4,58,246,0.761,0,nonword,1
21,4,59,106,0.721,1,suffix_priming,1
21,4,60,355,0.956,0,nonword,1
21,4,61,102,0.893,1,suffix_priming,1
21,4,62,149,0.882,0,nonword,1
21,4,63,235,0.88,1,suffix_control,1
21,4,64,211,0.807,1,suffix_control,1
21,4,65,227,0.67,1,suffix_control,1
21,4,66,312,1.047,1,stem_priming,1
21,4,67,223,0.899,1,suffix_control,1
21,4,68,363,0.679,0,nonword,1
21,4,69,173,0.692,0,nonword,1
21,4,70,421,0.721,1,stem_control,1
21,4,71,367,0.681,0,nonword,1
21,4,72,278,0.634,0,nonword,1
21,4,73,405,0.716,1,stem_control,1
21,4,74,433,0.755,1,stem_control,1
21,4,75,250,0.83,0,nonword,1
21,4,76,464,0.946,0,nonword,1
21,4,77,258,0.735,0,nonword,1
21,4,78,130,0.548,1,suffix_priming,1
21,4,79,165,0.921,0,nonword,1
21,4,80,138,1.179,0,suffix_priming,0
21,4,81,437,0.718,1,stem_control,1
21,4,82,203,0.62,1,suffix_control,1
21,4,83,417,0.51,1,stem_control,1
21,4,84,448,0.623,0,nonword,1
21,4,85,340,1.57,1,stem_priming,1
21,4,86,409,0.749,1,stem_control,1
21,4,87,114,0.578,1,suffix_priming,1
21,4,88,262,0.62,0,nonword,1
21,4,89,304,0.741,1,stem_priming,1
21,4,90,343,0.591,1,nonword,0
22,2,11,480,0.811,0,nonword,1
22,2,12,444,0.859,0,nonword,1
22,2,13,464,1.229,1,nonword,0
22,2,14,205,1.196,1,suffix_control,1
22,2,15,330,0.707,1,stem_priming,1
22,2,16,262,1.084,0,nonword,1
22,2,17,452,1.189,0,nonword,1
22,2,18,213,0.737,1,suffix_control,1
22,2,19,173,1.026,0,nonword,1
22,2,20,120,0.854,1,suffix_priming,1
22,2,21,108,0.862,1,suffix_priming,1
22,2,22,153,0.798,0,nonword,1
22,2,23,427,0.603,1,stem_control,1
22,2,24,250,0.873,0,nonword,1
22,2,25,128,0.587,1,suffix_priming,1
22,2,26,104,0.729,0,suffix_priming,0
22,2,27,310,0.67,1,stem_priming,1
22,2,28,225,0.631,1,suffix_control,1
22,2,29,439,1.039,0,stem_control,0
22,2,30,278,0.954,0,nonword,1
22,2,31,169,1.278,0,nonword,1
22,2,32,314,0.658,1,stem_priming,1
22,2,33,460,0.854,0,nonword,1
22,2,34,355,0.966,0,nonword,1
22,2,35,229,0.667,1,suffix_control,1
22,2,36,266,0.875,0,nonword,1
22,2,37,375,0.822,0,nonword,1
22,2,38,351,0.688,1,nonword,0
22,2,39,343,1.503,0,nonword,1
22,2,40,237,1.389,1,suffix_control,1
22,2,41,274,1.599,0,nonword,1
22,2,42,326,0.838,1,stem_priming,1
22,2,43,318,0.955,1,stem_priming,1
22,2,44,468,0.985,0,nonword,1
22,2,45,254,1.121,0,nonword,1
22,2,46,472,1.347,0,nonword,1
22,2,47,217,0.717,1,suffix_control,1
22,2,48,136,1.06,1,suffix_priming,1
22,2,49,116,0.708,1,suffix_priming,1
22,2,50,367,0.952,0,nonword,1
22,2,51,157,0.752,0,nonword,1
22,2,52,306,0.981,1,stem_priming,1
22,2,53,476,0.888,0,nonword,1
22,2,54,141,0.983,0,nonword,1
22,2,55,338,0.772,1,stem_priming,1
22,2,56,270,0.952,0,nonword,1
22,2,57,423,0.707,1,stem_control,1
22,2,58,379,0.985,0,nonword,1
22,2,59,322,0.753,1,stem_priming,1
22,2,60,359,0.718,1,nonword,0
22,2,61,431,0.783,1,stem_control,1
22,2,62,302,1.045,1,stem_priming,1
22,2,63,242,0.834,0,nonword,1
22,2,64,149,0.989,0,nonword,1
22,2,65,165,0.894,0,nonword,1
22,2,66,201,1.06,1,suffix_control,1
22,2,67,347,0.913,0,nonword,1
22,2,68,233,0.961,1,suffix_control,1
22,2,69,363,1.323,0,nonword,1
22,2,70,415,0.984,1,stem_control,1
22,2,71,456,0.973,0,nonword,1
22,2,72,132,0.742,1,suffix_priming,1
22,2,73,177,0.841,0,nonword,1
22,2,74,124,1.191,0,suffix_priming,0
22,2,75,140,0.701,1,suffix_priming,1
22,2,76,258,0.912,0,nonword,1
22,2,77,435,0.669,1,stem_control,1
22,2,78,407,0.616,1,stem_control,1
22,2,79,221,0.762,1,suffix_control,1
22,2,80,371,1.33,0,nonword,1
22,2,81,411,0.926,1,stem_control,1
22,2,82,246,1.08,0,nonword,1
22,2,83,448,1.109,0,nonword,1
22,2,84,145,0.942,0,nonword,1
22,2,85,209,0.708,1,suffix_control,1
22,2,86,161,1.642,0,nonword,1
22,2,87,112,0.631,1,suffix_priming,1
22,2,88,403,0.693,1,stem_control,1
22,2,89,334,0.626,1,stem_priming,1
22,2,90,419,1.575,0,stem_control,0
23,2,11,480,0.807,0,nonword,1
23,2,12,444,0.635,1,nonword,0
23,2,13,464,0.87,1,nonword,0
23,2,14,205,0.394,0,suffix_control,0
23,2,15,330,0.968,1,stem_priming,1
23,2,16,262,0.909,0,nonword,1
23,2,17,452,0.539,1,nonword,0
23,2,18,213,0.657,1,suffix_control,1
23,2,19,173,0.631,1,nonword,0
23,2,20,120,0.638,1,suffix_priming,1
23,2,21,108,0.672,1,suffix_priming,1
23,2,22,153,0.513,0,nonword,1
23,2,23,427,0.694,1,stem_control,1
23,2,24,250,0.613,1,nonword,0
23,2,25,128,0.744,0,suffix_priming,0
23,2,26,104,0.789,1,suffix_priming,1
23,2,27,310,0.73,1,stem_priming,1
23,2,28,225,0.533,1,suffix_control,1
23,2,29,439,0.454,0,stem_control,0
23,2,30,278,0.791,1,nonword,0
23,2,31,169,0.632,0,nonword,1
23,2,32,314,0.634,1,stem_priming,1
23,2,33,460,0.478,1,nonword,0
23,2,34,355,0.629,1,nonword,0
23,2,35,229,0.512,1,suffix_control,1
23,2,36,266,0.616,0,nonword,1
23,2,37,375,0.528,0,nonword,1
23,2,38,351,0.755,1,nonword,0
23,2,39,343,0.699,1,nonword,0
23,2,40,237,0.662,0,suffix_control,0
23,2,41,274,0.74,0,nonword,1
23,2,42,326,0.717,1,stem_priming,1
23,2,43,318,0.524,0,stem_priming,0
23,2,44,468,1.206,0,nonword,1
23,2,45,254,0.781,0,nonword,1
23,2,46,472,0.493,0,nonword,1
23,2,47,217,0.658,1,suffix_control,1
23,2,48,136,0.576,0,suffix_priming,0
23,2,49,116,0.615,0,suffix_priming,0
23,2,50,367,0.684,0,nonword,1
23,2,51,157,0.473,1,nonword,0
23,2,52,306,0.757,0,stem_priming,0
23,2,53,476,0.708,0,nonword,1
23,2,54,141,0.964,0,nonword,1
23,2,55,338,0.715,1,stem_priming,1
23,2,56,270,0.992,0,nonword,1
23,2,57,423,0.705,1,stem_control,1
23,2,58,379,0.673,0,nonword,1
23,2,59,322,0.883,1,stem_priming,1
23,2,60,359,0.786,0,nonword,1
23,2,61,431,0.861,1,stem_control,1
23,2,62,302,0.806,0,stem_priming,0
23,2,63,242,0.819,0,nonword,1
23,2,64,149,0.88,1,nonword,0
23,2,65,165,0.814,0,nonword,1
23,2,66,201,0.848,1,suffix_control,1
23,2,67,347,0.644,0,nonword,1
23,2,68,233,0.438,0,suffix_control,0
23,2,69,363,0.635,0,nonword,1
23,2,70,415,0.833,1,stem_control,1
23,2,71,456,0.592,0,nonword,1
23,2,72,132,0.673,1,suffix_priming,1
23,2,73,177,0.524,0,nonword,1
23,2,74,124,0.627,0,suffix_priming,0
23,2,75,140,0.959,1,suffix_priming,1
23,2,76,258,0.76,0,nonword,1
23,2,77,435,0.698,0,stem_control,0
23,2,78,407,0.689,1,stem_control,1
23,2,79,221,0.626,1,suffix_control,1
23,2,80,371,0.954,0,nonword,1
23,2,81,411,0.743,1,stem_control,1
23,2,82,246,0.72,0,nonword,1
23,2,83,448,0.544,0,nonword,1
23,2,84,145,0.54,0,nonword,1
23,2,85,209,0.628,1,suffix_control,1
23,2,86,161,1.002,0,nonword,1
23,2,87,112,1.139,1,suffix_priming,1
23,2,88,403,0.614,1,stem_control,1
23,2,89,334,0.544,1,stem_priming,1
23,2,90,419,0.591,1,stem_control,1
24,3,11,212,0.63,1,suffix_control,1
24,3,12,246,0.725,0,nonword,1
24,3,13,228,0.732,1,suffix_control,1
24,3,14,141,0.666,0,nonword,1
24,3,15,262,0.66,0,nonword,1
24,3,16,476,0.665,0,nonword,1
24,3,17,456,0.607,0,nonword,1
24,3,18,157,0.57,0,nonword,1
24,3,19,236,0.712,1,suffix_control,1
24,3,20,468,0.974,0,nonword,1
24,3,21,232,0.661,1,suffix_control,1
24,3,22,119,0.684,0,suffix_priming,0
24,3,23,127,0.618,1,suffix_priming,1
24,3,24,107,0.56,1,suffix_priming,1
24,3,25,305,1.143,1,stem_priming,1
24,3,26,333,0.794,1,stem_priming,1
24,3,27,274,0.765,0,nonword,1
24,3,28,216,0.624,1,suffix_control,1
24,3,29,220,0.772,1,suffix_control,1
24,3,30,414,0.669,1,stem_control,1
24,3,31,145,0.562,0,nonword,1
24,3,32,329,0.537,1,stem_priming,1
24,3,33,301,0.577,1,stem_priming,1
24,3,34,103,0.577,1,suffix_priming,1
24,3,35,402,0.743,1,stem_control,1
24,3,36,444,0.731,0,nonword,1
24,3,37,266,0.741,0,nonword,1
24,3,38,242,0.897,0,nonword,1
24,3,39,321,0.672,1,stem_priming,1
24,3,40,375,0.67,0,nonword,1
24,3,41,313,0.615,1,stem_priming,1
24,3,42,410,0.652,1,stem_control,1
24,3,43,426,0.708,1,stem_control,1
24,3,44,208,0.626,1,suffix_control,1
24,3,45,123,0.674,1,suffix_priming,1
24,3,46,418,0.841,1,stem_control,1
24,3,47,343,0.874,0,nonword,1
24,3,48,278,0.844,0,nonword,1
24,3,49,460,0.8,0,nonword,1
24,3,50,161,0.946,0,nonword,1
24,3,51,173,0.863,0,nonword,1
24,3,52,422,0.673,1,stem_control,1
24,3,53,438,0.8,1,stem_control,1
24,3,54,430,0.58,1,stem_control,1
24,3,55,169,0.883,0,nonword,1
24,3,56,371,0.764,0,nonword,1
24,3,57,363,0.733,0,nonword,1
24,3,58,359,0.781,0,nonword,1
24,3,59,270,0.796,0,nonword,1
24,3,60,367,0.747,0,nonword,1
24,3,61,448,0.664,0,nonword,1
24,3,62,406,0.801,1,stem_control,1
24,3,63,149,0.695,0,nonword,1
24,3,64,224,0.802,1,suffix_control,1
24,3,65,139,0.989,1,suffix_priming,1
24,3,66,165,0.725,0,nonword,1
24,3,67,258,0.763,0,nonword,1
24,3,68,434,0.593,1,stem_control,1
24,3,69,325,0.538,1,stem_priming,1
24,3,70,379,0.604,0,nonword,1
24,3,71,480,0.633,0,nonword,1
24,3,72,250,0.852,0,nonword,1
24,3,73,464,0.972,0,nonword,1
24,3,74,153,0.602,0,nonword,1
24,3,75,472,1.197,0,nonword,1
24,3,76,355,0.676,0,nonword,1
24,3,77,452,0.63,1,nonword,0
24,3,78,309,0.715,1,stem_priming,1
24,3,79,337,1.127,1,stem_priming,1
24,3,80,204,1.233,1,suffix_control,1
24,3,81,177,0.616,0,nonword,1
24,3,82,135,0.781,1,suffix_priming,1
24,3,83,111,0.826,1,suffix_priming,1
24,3,84,131,0.663,1,suffix_priming,1
24,3,85,115,0.621,1,suffix_priming,1
24,3,86,240,0.703,1,suffix_control,1
24,3,87,254,0.764,0,nonword,1
24,3,88,347,0.768,0,nonword,1
24,3,89,317,0.57,1,stem_priming,1
24,3,90,351,0.661,0,nonword,1
25,4,11,320,0.658,1,stem_priming,1
25,4,12,316,0.498,0,stem_priming,0
25,4,13,177,0.573,0,nonword,1
25,4,14,231,0.639,1,suffix_control,1
25,4,15,270,0.606,1,nonword,0
25,4,16,413,0.494,1,stem_control,1
25,4,17,215,0.546,1,suffix_control,1
25,4,18,425,0.546,1,stem_control,1
25,4,19,126,0.624,1,suffix_priming,1
25,4,20,274,0.594,0,nonword,1
25,4,21,379,0.688,0,nonword,1
25,4,22,122,0.525,1,suffix_priming,1
25,4,23,219,0.512,1,suffix_control,1
25,4,24,207,0.506,1,suffix_control,1
25,4,25,145,0.517,0,nonword,1
25,4,26,157,0.594,0,nonword,1
25,4,27,375,0.511,0,nonword,1
25,4,28,134,0.551,1,suffix_priming,1
25,4,29,460,0.553,0,nonword,1
25,4,30,444,0.479,1,nonword,0
25,4,31,332,0.542,1,stem_priming,1
25,4,32,456,0.547,0,nonword,1
25,4,33,480,0.465,0,nonword,1
25,4,34,328,0.456,1,stem_priming,1
25,4,35,336,0.636,1,stem_priming,1
25,4,36,359,0.547,0,nonword,1
25,4,37,141,0.47,0,nonword,1
25,4,38,452,0.643,1,nonword,0
25,4,39,239,0.848,1,suffix_control,1
25,4,40,371,0.651,0,nonword,1
25,4,41,153,0.627,0,nonword,1
25,4,42,254,0.467,0,nonword,1
25,4,43,476,0.62,0,nonword,1
25,4,44,110,0.471,1,suffix_priming,1
25,4,45,118,0.546,1,suffix_priming,1
25,4,46,468,0.608,1,nonword,0
25,4,47,161,0.594,0,nonword,1
25,4,48,351,0.598,0,nonword,1
25,4,49,324,0.526,1,stem_priming,1
25,4,50,169,0.793,0,nonword,1
25,4,51,472,1.028,0,nonword,1
25,4,52,242,0.595,0,nonword,1
25,4,53,429,0.576,1,stem_control,1
25,4,54,266,0.484,0,nonword,1
25,4,55,401,0.77,1,stem_control,1
25,4,56,347,0.579,0,nonword,1
25,4,57,308,0.512,1,stem_priming,1
25,4,58,246,0.763,0,nonword,1
25,4,59,106,0.728,1,suffix_priming,1
25,4,60,355,0.671,0,nonword,1
25,4,61,102,0.512,1,suffix_priming,1
25,4,62,149,0.498,0,nonword,1
25,4,63,235,0.706,1,suffix_control,1
25,4,64,211,0.564,0,suffix_control,0
25,4,65,227,0.485,1,suffix_control,1
25,4,66,312,0.71,1,stem_priming,1
25,4,67,223,0.636,1,suffix_control,1
25,4,68,363,0.561,0,nonword,1
25,4,69,173,0.533,1,nonword,0
25,4,70,421,0.54,1,stem_control,1
25,4,71,367,0.544,0,nonword,1
25,4,72,278,0.601,0,nonword,1
25,4,73,405,0.475,1,stem_control,1
25,4,74,433,0.639,1,stem_control,1
25,4,75,250,0.663,0,nonword,1
25,4,76,464,0.8,0,nonword,1
25,4,77,258,0.524,0,nonword,1
25,4,78,130,0.669,1,suffix_priming,1
25,4,79,165,0.708,0,nonword,1
25,4,80,138,0.561,1,suffix_priming,1
25,4,81,437,0.658,1,stem_control,1
25,4,82,203,0.469,1,suffix_control,1
25,4,83,417,0.63,1,stem_control,1
25,4,84,448,0.53,0,nonword,1
25,4,85,340,0.526,1,stem_priming,1
25,4,86,409,0.573,1,stem_control,1
25,4,87,114,0.52,1,suffix_priming,1
25,4,88,262,0.575,0,nonword,1
25,4,89,304,0.609,1,stem_priming,1
25,4,90,343,0.552,1,nonword,0
26,1,11,371,0.971,0,nonword,1
26,1,12,125,0.78,1,suffix_priming,1
26,1,13,472,1.375,0,nonword,1
26,1,14,157,0.786,1,nonword,0
26,1,15,424,1.348,1,stem_control,1
26,1,16,456,1.274,0,nonword,1
26,1,17,145,1.293,0,nonword,1
26,1,18,218,1.28,1,suffix_control,1
26,1,19,230,1.362,1,suffix_control,1
26,1,20,117,1.111,1,suffix_priming,1
26,1,21,246,0,1,nonword,0
26,1,22,367,1.107,0,nonword,1
26,1,23,355,1.178,0,nonword,1
26,1,24,169,1.055,1,nonword,0
26,1,25,262,1.243,0,nonword,1
26,1,26,335,1.26,1,stem_priming,1
26,1,27,319,1.295,1,stem_priming,1
26,1,28,101,0.904,1,suffix_priming,1
26,1,29,214,0.903,1,suffix_control,1
26,1,30,416,0.828,1,stem_control,1
26,1,31,480,1.045,0,nonword,1
26,1,32,444,0.961,0,nonword,1
26,1,33,323,0.814,1,stem_priming,1
26,1,34,331,0.894,1,stem_priming,1
26,1,35,363,0.827,0,nonword,1
26,1,36,315,0.699,1,stem_priming,1
26,1,37,303,0.754,1,stem_priming,1
26,1,38,343,0.947,0,nonword,1
26,1,39,311,0.867,1,stem_priming,1
26,1,40,113,1.179,1,suffix_priming,1
26,1,41,266,1.214,0,nonword,1
26,1,42,141,1.05,0,nonword,1
26,1,43,165,0.996,0,nonword,1
26,1,44,327,0.846,1,stem_priming,1
26,1,45,464,1.136,0,nonword,1
26,1,46,258,0.885,0,nonword,1
26,1,47,222,0.972,1,suffix_control,1
26,1,48,173,0.801,0,nonword,1
26,1,49,238,1.057,1,suffix_control,1
26,1,50,452,1.371,0,nonword,1
26,1,51,351,0.875,0,nonword,1
26,1,52,121,0.765,1,suffix_priming,1
26,1,53,202,0.825,1,suffix_control,1
26,1,54,234,0.645,1,suffix_control,1
26,1,55,274,1.364,0,nonword,1
26,1,56,270,1.024,0,nonword,1
26,1,57,254,1.083,0,nonword,1
26,1,58,468,0.837,0,nonword,1
26,1,59,242,1.111,0,nonword,1
26,1,60,347,0.827,0,nonword,1
26,1,61,161,1.215,1,nonword,0
26,1,62,307,0.816,1,stem_priming,1
26,1,63,129,0.782,1,suffix_priming,1
26,1,64,408,0.718,1,stem_control,1
26,1,65,432,0.618,1,stem_control,1
26,1,66,210,0.667,1,suffix_control,1
26,1,67,105,0.665,1,suffix_priming,1
26,1,68,379,0.981,0,nonword,1
26,1,69,137,0.68,1,suffix_priming,1
26,1,70,375,0.922,0,nonword,1
26,1,71,149,0.843,0,nonword,1
26,1,72,428,0.677,1,stem_control,1
26,1,73,339,0.95,1,stem_priming,1
26,1,74,448,0.824,0,nonword,1
26,1,75,177,0.726,0,nonword,1
26,1,76,250,0.737,0,nonword,1
26,1,77,460,0.659,0,nonword,1
26,1,78,420,0.84,1,stem_control,1
26,1,79,278,0.622,0,nonword,1
26,1,80,226,0.719,1,suffix_control,1
26,1,81,206,0.57,0,suffix_control,0
26,1,82,133,0.694,1,suffix_priming,1
26,1,83,153,0.61,0,nonword,1
26,1,84,359,0.636,1,nonword,0
26,1,85,404,0.865,1,stem_control,1
26,1,86,109,0.727,1,suffix_priming,1
26,1,87,412,0.777,1,stem_control,1
26,1,88,436,0.736,0,stem_control,0
26,1,89,476,0.793,0,nonword,1
26,1,90,440,0.648,1,stem_control,1
27,2,11,480,0.996,0,nonword,1
27,2,12,444,1.472,0,nonword,1
27,2,13,464,0,0,nonword,1
27,2,14,205,0.799,1,suffix_control,1
27,2,15,330,0.666,1,stem_priming,1
27,2,16,262,1.427,0,nonword,1
27,2,17,452,0.864,1,nonword,0
27,2,18,213,0.963,1,suffix_control,1
27,2,19,173,1.173,0,nonword,1
27,2,20,120,1.068,1,suffix_priming,1
27,2,21,108,0.862,1,suffix_priming,1
27,2,22,153,0.794,0,nonword,1
27,2,23,427,0.839,1,stem_control,1
27,2,24,250,1.308,0,nonword,1
27,2,25,128,0.84,1,suffix_priming,1
27,2,26,104,0.955,1,suffix_priming,1
27,2,27,310,0.741,1,stem_priming,1
27,2,28,225,1.203,1,suffix_control,1
27,2,29,439,1.005,1,stem_control,1
27,2,30,278,1.023,0,nonword,1
27,2,31,169,1.244,0,nonword,1
27,2,32,314,1.047,1,stem_priming,1
27,2,33,460,1.294,0,nonword,1
27,2,34,355,1.297,0,nonword,1
27,2,35,229,0.606,1,suffix_control,1
27,2,36,266,0.982,0,nonword,1
27,2,37,375,1.036,0,nonword,1
27,2,38,351,1.167,0,nonword,1
27,2,39,343,1.639,0,nonword,1
27,2,40,237,0.882,1,suffix_control,1
27,2,41,274,1.363,0,nonword,1
27,2,42,326,1.107,0,stem_priming,0
27,2,43,318,1.033,1,stem_priming,1
27,2,44,468,1.12,0,nonword,1
27,2,45,254,0.969,0,nonword,1
27,2,46,472,1.105,1,nonword,0
27,2,47,217,0.816,0,suffix_control,0
27,2,48,136,1.192,1,suffix_priming,1
27,2,49,116,0.67,1,suffix_priming,1
27,2,50,367,1.108,0,nonword,1
27,2,51,157,1.072,0,nonword,1
27,2,52,306,0.81,1,stem_priming,1
27,2,53,476,1.195,0,nonword,1
27,2,54,141,1.277,0,nonword,1
27,2,55,338,1.086,1,stem_priming,1
27,2,56,270,1.393,0,nonword,1
27,2,57,423,0.878,1,stem_control,1
27,2,58,379,1.477,0,nonword,1
27,2,59,322,0.915,1,stem_priming,1
27,2,60,359,1.022,0,nonword,1
27,2,61,431,0.582,1,stem_control,1
27,2,62,302,1.637,0,stem_priming,0
27,2,63,242,1.057,0,nonword,1
27,2,64,149,1.301,0,nonword,1
27,2,65,165,1.191,0,nonword,1
27,2,66,201,1.652,1,suffix_control,1
27,2,67,347,1.195,0,nonword,1
27,2,68,233,1.491,1,suffix_control,1
27,2,69,363,1.384,0,nonword,1
27,2,70,415,0.879,1,stem_control,1
27,2,71,456,1.623,0,nonword,1
27,2,72,132,0.921,1,suffix_priming,1
27,2,73,177,0.981,0,nonword,1
27,2,74,124,0.847,1,suffix_priming,1
27,2,75,140,0.842,1,suffix_priming,1
27,2,76,258,0.974,0,nonword,1
27,2,77,435,1.233,1,stem_control,1
27,2,78,407,0.826,1,stem_control,1
27,2,79,221,0.673,1,suffix_control,1
27,2,80,371,1.436,0,nonword,1
27,2,81,411,0.864,1,stem_control,1
27,2,82,246,1.802,0,nonword,1
27,2,83,448,1.038,0,nonword,1
27,2,84,145,1.311,0,nonword,1
27,2,85,209,0.771,1,suffix_control,1
27,2,86,161,1.216,0,nonword,1
27,2,87,112,0.816,1,suffix_priming,1
27,2,88,403,0.85,1,stem_control,1
27,2,89,334,0.845,1,stem_priming,1
27,2,90,419,0.97,0,stem_control,0
28,3,11,212,0.887,1,suffix_control,1
28,3,12,246,1.606,0,nonword,1
28,3,13,228,0.744,1,suffix_control,1
28,3,14,141,0.932,0,nonword,1
28,3,15,262,0.825,0,nonword,1
28,3,16,476,0.622,0,nonword,1
28,3,17,456,0.996,0,nonword,1
28,3,18,157,0.775,0,nonword,1
28,3,19,236,0.574,1,suffix_control,1
28,3,20,468,0.826,0,nonword,1
28,3,21,232,0.728,1,suffix_control,1
28,3,22,119,0.625,1,suffix_priming,1
28,3,23,127,0.574,1,suffix_priming,1
28,3,24,107,0.542,1,suffix_priming,1
28,3,25,305,0.535,1,stem_priming,1
28,3,26,333,0.805,1,stem_priming,1
28,3,27,274,0.977,0,nonword,1
28,3,28,216,0.585,1,suffix_control,1
28,3,29,220,0.542,1,suffix_control,1
28,3,30,414,0.654,1,stem_control,1
28,3,31,145,0.775,1,nonword,0
28,3,32,329,0.645,1,stem_priming,1
28,3,33,301,0.712,1,stem_priming,1
28,3,34,103,0.59,1,suffix_priming,1
28,3,35,402,0.661,1,stem_control,1
28,3,36,444,0.977,0,nonword,1
28,3,37,266,0.693,0,nonword,1
28,3,38,242,0.788,0,nonword,1
28,3,39,321,0.645,1,stem_priming,1
28,3,40,375,0.653,0,nonword,1
28,3,41,313,0.642,1,stem_priming,1
28,3,42,410,0.621,1,stem_control,1
28,3,43,426,0.597,1,stem_control,1
28,3,44,208,0.675,1,suffix_control,1
28,3,45,123,0.665,1,suffix_priming,1
28,3,46,418,0.619,1,stem_control,1
28,3,47,343,0.796,0,nonword,1
28,3,48,278,0.939,0,nonword,1
28,3,49,460,0.774,0,nonword,1
28,3,50,161,0.687,0,nonword,1
28,3,51,173,0.651,0,nonword,1
28,3,52,422,0.806,1,stem_control,1
28,3,53,438,1.056,0,stem_control,0
28,3,54,430,0.962,1,stem_control,1
28,3,55,169,0.912,0,nonword,1
28,3,56,371,0.988,0,nonword,1
28,3,57,363,1.036,0,nonword,1
28,3,58,359,0.875,0,nonword,1
28,3,59,270,0.858,0,nonword,1
28,3,60,367,0.527,0,nonword,1
28,3,61,448,0.548,0,nonword,1
28,3,62,406,0.664,0,stem_control,0
28,3,63,149,0.715,0,nonword,1
28,3,64,224,0.761,1,suffix_control,1
28,3,65,139,1.789,1,suffix_priming,1
28,3,66,165,0.764,0,nonword,1
28,3,67,258,0.988,0,nonword,1
28,3,68,434,0.858,1,stem_control,1
28,3,69,325,0.761,1,stem_priming,1
28,3,70,379,0.97,0,nonword,1
28,3,71,480,0.692,0,nonword,1
28,3,72,250,0.764,0,nonword,1
28,3,73,464,0.611,0,nonword,1
28,3,74,153,0.542,0,nonword,1
28,3,75,472,1.211,0,nonword,1
28,3,76,355,0.614,0,nonword,1
28,3,77,452,1.006,0,nonword,1
28,3,78,309,0.813,1,stem_priming,1
28,3,79,337,0.77,1,stem_priming,1
28,3,80,204,1.263,0,suffix_control,0
28,3,81,177,1.101,0,nonword,1
28,3,82,135,0.734,1,suffix_priming,1
28,3,83,111,0.86,1,suffix_priming,1
28,3,84,131,0,1,suffix_priming,1
28,3,85,115,0.645,1,suffix_priming,1
28,3,86,240,0.69,1,suffix_control,1
28,3,87,254,0.701,0,nonword,1
28,3,88,347,0.698,0,nonword,1
28,3,89,317,0.628,1,stem_priming,1
28,3,90,351,0.716,0,nonword,1
29,4,11,320,1.03,1,stem_priming,1
29,4,12,316,0.746,1,stem_priming,1
29,4,13,177,1.005,0,nonword,1
29,4,14,231,0.983,1,suffix_control,1
29,4,15,270,1.4,0,nonword,1
29,4,16,413,0.915,1,stem_control,1
29,4,17,215,0.721,1,suffix_control,1
29,4,18,425,0.718,1,stem_control,1
29,4,19,126,0.889,1,suffix_priming,1
29,4,20,274,1.294,0,nonword,1
29,4,21,379,1.09,0,nonword,1
29,4,22,122,0.941,1,suffix_priming,1
29,4,23,219,1.361,1,suffix_control,1
29,4,24,207,0.865,1,suffix_control,1
29,4,25,145,1.011,0,nonword,1
29,4,26,157,1.28,0,nonword,1
29,4,27,375,1.183,0,nonword,1
29,4,28,134,1.255,1,suffix_priming,1
29,4,29,460,0.974,0,nonword,1
29,4,30,444,1.519,0,nonword,1
29,4,31,332,0.612,1,stem_priming,1
29,4,32,456,1.247,0,nonword,1
29,4,33,480,0.914,0,nonword,1
29,4,34,328,0.732,1,stem_priming,1
29,4,35,336,0.655,1,stem_priming,1
29,4,36,359,1,0,nonword,1
29,4,37,141,0.852,0,nonword,1
29,4,38,452,1.099,0,nonword,1
29,4,39,239,1.635,1,suffix_control,1
29,4,40,371,0.858,0,nonword,1
29,4,41,153,0.955,0,nonword,1
29,4,42,254,0.883,0,nonword,1
29,4,43,476,1.112,0,nonword,1
29,4,44,110,0.785,1,suffix_priming,1
29,4,45,118,0.777,1,suffix_priming,1
29,4,46,468,1.404,0,nonword,1
29,4,47,161,1.083,0,nonword,1
29,4,48,351,0.871,0,nonword,1
29,4,49,324,0.99,1,stem_priming,1
29,4,50,169,1.003,0,nonword,1
29,4,51,472,1.109,0,nonword,1
29,4,52,242,0.727,0,nonword,1
29,4,53,429,0.718,1,stem_control,1
29,4,54,266,0.706,0,nonword,1
29,4,55,401,1.438,1,stem_control,1
29,4,56,347,0.756,0,nonword,1
29,4,57,308,0.805,1,stem_priming,1
29,4,58,246,1.887,0,nonword,1
29,4,59,106,0.85,1,suffix_priming,1
29,4,60,355,1.069,0,nonword,1
29,4,61,102,1.242,1,suffix_priming,1
29,4,62,149,0.929,0,nonword,1
29,4,63,235,0.843,1,suffix_control,1
29,4,64,211,0.783,1,suffix_control,1
29,4,65,227,0.789,1,suffix_control,1
29,4,66,312,0.733,1,stem_priming,1
29,4,67,223,0.852,1,suffix_control,1
29,4,68,363,0.966,0,nonword,1
29,4,69,173,0.845,0,nonword,1
29,4,70,421,0.931,1,stem_control,1
29,4,71,367,0.863,0,nonword,1
29,4,72,278,0.871,0,nonword,1
29,4,73,405,0.736,1,stem_control,1
29,4,74,433,0.813,1,stem_control,1
29,4,75,250,0.996,0,nonword,1
29,4,76,464,1.119,0,nonword,1
29,4,77,258,0.82,0,nonword,1
29,4,78,130,0.598,1,suffix_priming,1
29,4,79,165,0.788,0,nonword,1
29,4,80,138,1.204,1,suffix_priming,1
29,4,81,437,1.264,1,stem_control,1
29,4,82,203,0.792,1,suffix_control,1
29,4,83,417,0.771,1,stem_control,1
29,4,84,448,0.837,0,nonword,1
29,4,85,340,0.645,1,stem_priming,1
29,4,86,409,0.814,1,stem_control,1
29,4,87,114,0.597,1,suffix_priming,1
29,4,88,262,0.855,0,nonword,1
29,4,89,304,0.969,1,stem_priming,1
29,4,90,343,0.781,0,nonword,1
62,1,11,339,1.075,1,stem_priming,1
62,1,12,420,0.68,1,stem_control,1
62,1,13,218,0.805,1,suffix_control,1
62,1,14,278,0.73,0,nonword,1
62,1,15,468,0.861,0,nonword,1
62,1,16,254,0.863,0,nonword,1
62,1,17,331,0.584,1,stem_priming,1
62,1,18,359,0.876,0,nonword,1
62,1,19,234,0.699,1,suffix_control,1
62,1,20,121,0.682,1,suffix_priming,1
62,1,21,432,0.683,1,stem_control,1
62,1,22,347,0.576,0,nonword,1
62,1,23,157,0.795,0,nonword,1
62,1,24,258,0.835,0,nonword,1
62,1,25,125,0.615,1,suffix_priming,1
62,1,26,303,0.617,1,stem_priming,1
62,1,27,149,0.647,0,nonword,1
62,1,28,319,0.608,1,stem_priming,1
62,1,29,238,0.9,1,suffix_control,1
62,1,30,311,0.633,1,stem_priming,1
62,1,31,464,0.729,0,nonword,1
62,1,32,416,0.61,1,stem_control,1
62,1,33,335,0.596,1,stem_priming,1
62,1,34,375,0.737,0,nonword,1
62,1,35,165,0.834,0,nonword,1
62,1,36,476,0.941,0,nonword,1
62,1,37,214,0.565,1,suffix_control,1
62,1,38,169,0.821,0,nonword,1
62,1,39,315,0.566,1,stem_priming,1
62,1,40,226,0.632,1,suffix_control,1
62,1,41,452,0.659,0,nonword,1
62,1,42,250,0.726,0,nonword,1
62,1,43,246,0.777,0,nonword,1
62,1,44,408,0.644,1,stem_control,1
62,1,45,242,0.728,0,nonword,1
62,1,46,173,0.68,0,nonword,1
62,1,47,161,0.769,0,nonword,1
62,1,48,113,0.704,1,suffix_priming,1
62,1,49,105,0.689,1,suffix_priming,1
62,1,50,371,1.039,0,nonword,1
62,1,51,448,0.676,0,nonword,1
62,1,52,206,0.686,1,suffix_control,1
62,1,53,323,0.59,1,stem_priming,1
62,1,54,129,0.568,1,suffix_priming,1
62,1,55,101,0.668,1,suffix_priming,1
62,1,56,472,0.728,0,nonword,1
62,1,57,480,0.633,0,nonword,1
62,1,58,153,0.735,0,nonword,1
62,1,59,428,0.613,1,stem_control,1
62,1,60,222,0.616,1,suffix_control,1
62,1,61,456,0.725,0,nonword,1
62,1,62,274,0.779,0,nonword,1
62,1,63,355,0.688,0,nonword,1
62,1,64,460,0.684,0,nonword,1
62,1,65,230,0.611,1,suffix_control,1
62,1,66,117,0.577,1,suffix_priming,1
62,1,67,367,0.618,0,nonword,1
62,1,68,412,0.554,1,stem_control,1
62,1,69,404,1.001,1,stem_control,1
62,1,70,145,0.639,0,nonword,1
62,1,71,210,0.625,1,suffix_control,1
62,1,72,440,0.608,1,stem_control,1
62,1,73,351,0.747,0,nonword,1
62,1,74,424,0.649,1,stem_control,1
62,1,75,141,0.678,0,nonword,1
62,1,76,262,0.581,0,nonword,1
62,1,77,270,0.724,0,nonword,1
62,1,78,109,0.583,1,suffix_priming,1
62,1,79,137,0.574,1,suffix_priming,1
62,1,80,307,0.562,1,stem_priming,1
62,1,81,177,0.567,0,nonword,1
62,1,82,444,0.534,1,nonword,0
62,1,83,266,0.658,0,nonword,1
62,1,84,343,0.782,0,nonword,1
62,1,85,133,0.848,1,suffix_priming,1
62,1,86,379,0.713,0,nonword,1
62,1,87,327,0.746,1,stem_priming,1
62,1,88,202,0.634,1,suffix_control,1
62,1,89,436,0.892,1,stem_control,1
62,1,90,363,0.771,0,nonword,1
30,2,11,177,0.832,0,nonword,1
30,2,12,407,0.658,1,stem_control,1
30,2,13,213,0.716,1,suffix_control,1
30,2,14,221,0.7,1,suffix_control,1
30,2,15,120,0.989,1,suffix_priming,1
30,2,16,343,0.891,0,nonword,1
30,2,17,201,1.424,1,suffix_control,1
30,2,18,310,1.022,0,stem_priming,0
30,2,19,338,1.01,0,stem_priming,0
30,2,20,229,0.657,1,suffix_control,1
30,2,21,306,0.925,1,stem_priming,1
30,2,22,480,1.041,0,nonword,1
30,2,23,468,0.857,0,nonword,1
30,2,24,233,0.899,1,suffix_control,1
30,2,25,217,0.717,1,suffix_control,1
30,2,26,173,0.773,0,nonword,1
30,2,27,375,0.966,0,nonword,1
30,2,28,262,0.938,0,nonword,1
30,2,29,157,0.864,0,nonword,1
30,2,30,452,0.946,0,nonword,1
30,2,31,403,0.908,1,stem_control,1
30,2,32,104,0.929,1,suffix_priming,1
30,2,33,132,0.9,1,suffix_priming,1
30,2,34,318,0.707,1,stem_priming,1
30,2,35,258,0.909,0,nonword,1
30,2,36,250,0.871,0,nonword,1
30,2,37,278,0.86,1,nonword,0
30,2,38,169,1.036,0,nonword,1
30,2,39,322,0.927,1,stem_priming,1
30,2,40,351,0.998,0,nonword,1
30,2,41,367,1.143,0,nonword,1
30,2,42,423,0.69,1,stem_control,1
30,2,43,128,0.924,1,suffix_priming,1
30,2,44,427,0.675,1,stem_control,1
30,2,45,108,0.642,1,suffix_priming,1
30,2,46,476,0.914,1,nonword,0
30,2,47,246,0.851,0,nonword,1
30,2,48,435,0.629,1,stem_control,1
30,2,49,112,0.782,1,suffix_priming,1
30,2,50,161,1.123,0,nonword,1
30,2,51,136,0.821,1,suffix_priming,1
30,2,52,141,0.716,0,nonword,1
30,2,53,209,0.628,1,suffix_control,1
30,2,54,225,0.573,1,suffix_control,1
30,2,55,347,0.818,0,nonword,1
30,2,56,326,0.625,1,stem_priming,1
30,2,57,448,0.849,0,nonword,1
30,2,58,419,0.712,1,stem_control,1
30,2,59,270,0.853,0,nonword,1
30,2,60,371,0.784,0,nonword,1
30,2,61,460,0.781,0,nonword,1
30,2,62,355,0.792,0,nonword,1
30,2,63,242,0.839,0,nonword,1
30,2,64,165,0.712,0,nonword,1
30,2,65,411,0.794,1,stem_control,1
30,2,66,205,0.685,1,suffix_control,1
30,2,67,302,0.726,1,stem_priming,1
30,2,68,431,0.914,0,stem_control,0
30,2,69,153,0.694,0,nonword,1
30,2,70,330,0.684,1,stem_priming,1
30,2,71,237,0.726,1,suffix_control,1
30,2,72,266,0.798,0,nonword,1
30,2,73,464,0.744,0,nonword,1
30,2,74,145,0.995,0,nonword,1
30,2,75,472,0.759,0,nonword,1
30,2,76,149,0.748,0,nonword,1
30,2,77,116,0.696,1,suffix_priming,1
30,2,78,314,0.608,1,stem_priming,1
30,2,79,415,0.557,1,stem_control,1
30,2,80,274,0.68,0,nonword,1
30,2,81,140,0.546,1,suffix_priming,1
30,2,82,254,0.642,0,nonword,1
30,2,83,124,0.713,1,suffix_priming,1
30,2,84,379,0.617,0,nonword,1
30,2,85,444,0.712,0,nonword,1
30,2,86,334,0.61,1,stem_priming,1
30,2,87,439,1.001,0,stem_control,0
30,2,88,359,0.796,0,nonword,1
30,2,89,456,0.734,0,nonword,1
30,2,90,363,0.808,0,nonword,1
31,3,11,464,0.593,0,nonword,1
31,3,12,309,0.5,1,stem_priming,1
31,3,13,157,0.685,0,nonword,1
31,3,14,337,0.582,1,stem_priming,1
31,3,15,131,0.597,1,suffix_priming,1
31,3,16,123,0.65,1,suffix_priming,1
31,3,17,367,0.724,0,nonword,1
31,3,18,359,0.913,0,nonword,1
31,3,19,444,0.903,0,nonword,1
31,3,20,347,0.792,0,nonword,1
31,3,21,452,1.066,0,nonword,1
31,3,22,111,0.602,1,suffix_priming,1
31,3,23,422,0.603,1,stem_control,1
31,3,24,177,0.706,0,nonword,1
31,3,25,107,0.55,1,suffix_priming,1
31,3,26,460,0.782,0,nonword,1
31,3,27,305,0.631,1,stem_priming,1
31,3,28,418,0.617,1,stem_control,1
31,3,29,406,0.639,1,stem_control,1
31,3,30,434,0.579,1,stem_control,1
31,3,31,250,0.798,0,nonword,1
31,3,32,161,0.82,0,nonword,1
31,3,33,448,0.711,0,nonword,1
31,3,34,329,0.6,1,stem_priming,1
31,3,35,169,0.753,0,nonword,1
31,3,36,333,0.577,1,stem_priming,1
31,3,37,363,0.748,0,nonword,1
31,3,38,119,0.621,1,suffix_priming,1
31,3,39,242,1.154,0,nonword,1
31,3,40,430,0.8,1,stem_control,1
31,3,41,224,0.679,1,suffix_control,1
31,3,42,317,0.543,1,stem_priming,1
31,3,43,266,0.611,0,nonword,1
31,3,44,278,0.639,0,nonword,1
31,3,45,173,0.681,0,nonword,1
31,3,46,236,0.566,1,suffix_control,1
31,3,47,135,0.584,1,suffix_priming,1
31,3,48,208,0.494,1,suffix_control,1
31,3,49,414,0.523,1,stem_control,1
31,3,50,103,0.641,1,suffix_priming,1
31,3,51,313,0.618,1,stem_priming,1
31,3,52,220,0.617,1,suffix_control,1
31,3,53,402,0.424,1,stem_control,1
31,3,54,212,0.478,1,suffix_control,1
31,3,55,232,0.397,1,suffix_control,1
31,3,56,355,0.641,0,nonword,1
31,3,57,301,0.564,1,stem_priming,1
31,3,58,139,0.616,1,suffix_priming,1
31,3,59,468,0.597,0,nonword,1
31,3,60,375,0.538,0,nonword,1
31,3,61,426,0.61,1,stem_control,1
31,3,62,472,0.726,0,nonword,1
31,3,63,149,0.591,0,nonword,1
31,3,64,480,0.616,0,nonword,1
31,3,65,321,0.545,1,stem_priming,1
31,3,66,274,0.611,0,nonword,1
31,3,67,228,0.558,1,suffix_control,1
31,3,68,325,0.545,1,stem_priming,1
31,3,69,379,0.525,1,nonword,0
31,3,70,204,0.631,1,suffix_control,1
31,3,71,153,0.624,0,nonword,1
31,3,72,127,0.499,1,suffix_priming,1
31,3,73,270,0.54,0,nonword,1
31,3,74,371,0.521,1,nonword,0
31,3,75,351,0.843,0,nonword,1
31,3,76,165,0.723,0,nonword,1
31,3,77,240,0.726,1,suffix_control,1
31,3,78,438,0.732,1,stem_control,1
31,3,79,258,0.549,0,nonword,1
31,3,80,254,0.567,0,nonword,1
31,3,81,216,0.674,1,suffix_control,1
31,3,82,145,0.678,0,nonword,1
31,3,83,246,0.591,0,nonword,1
31,3,84,262,0.668,0,nonword,1
31,3,85,115,0.545,1,suffix_priming,1
31,3,86,343,0.62,0,nonword,1
31,3,87,141,0.573,0,nonword,1
31,3,88,476,0.514,0,nonword,1
31,3,89,410,0.533,1,stem_control,1
31,3,90,456,0.599,0,nonword,1
32,4,11,405,0.808,1,stem_control,1
32,4,12,130,0.625,1,suffix_priming,1
32,4,13,425,0.814,1,stem_control,1
32,4,14,165,0.71,0,nonword,1
32,4,15,468,0.91,0,nonword,1
32,4,16,336,0.594,1,stem_priming,1
32,4,17,270,1.209,0,nonword,1
32,4,18,134,0.783,1,suffix_priming,1
32,4,19,141,0.801,0,nonword,1
32,4,20,464,1.248,0,nonword,1
32,4,21,173,0.81,0,nonword,1
32,4,22,359,1.121,0,nonword,1
32,4,23,413,0.717,1,stem_control,1
32,4,24,149,0.977,0,nonword,1
32,4,25,312,0.539,1,stem_priming,1
32,4,26,223,0.965,1,suffix_control,1
32,4,27,246,1.496,0,nonword,1
32,4,28,421,0.681,1,stem_control,1
32,4,29,177,0.965,0,nonword,1
32,4,30,242,0.961,0,nonword,1
32,4,31,262,0.83,0,nonword,1
32,4,32,118,0.735,1,suffix_priming,1
32,4,33,145,0.784,0,nonword,1
32,4,34,215,0.508,1,suffix_control,1
32,4,35,324,0.727,1,stem_priming,1
32,4,36,409,0.654,1,stem_control,1
32,4,37,340,0.502,1,stem_priming,1
32,4,38,316,0.575,1,stem_priming,1
32,4,39,157,0.927,0,nonword,1
32,4,40,102,0.709,1,suffix_priming,1
32,4,41,239,1.304,0,suffix_control,0
32,4,42,363,1.028,0,nonword,1
32,4,43,351,0.828,0,nonword,1
32,4,44,429,0.646,1,stem_control,1
32,4,45,219,0.759,1,suffix_control,1
32,4,46,278,0.961,0,nonword,1
32,4,47,448,0.901,0,nonword,1
32,4,48,308,0.575,1,stem_priming,1
32,4,49,456,0.758,0,nonword,1
32,4,50,347,0.754,0,nonword,1
32,4,51,417,0.641,1,stem_control,1
32,4,52,328,0.589,1,stem_priming,1
32,4,53,254,0.94,0,nonword,1
32,4,54,401,1.226,0,stem_control,0
32,4,55,452,0.988,0,nonword,1
32,4,56,250,0.978,0,nonword,1
32,4,57,332,0.595,1,stem_priming,1
32,4,58,110,0.512,1,suffix_priming,1
32,4,59,304,0.674,1,stem_priming,1
32,4,60,266,0.952,0,nonword,1
32,4,61,211,0.623,1,suffix_control,1
32,4,62,375,0.942,0,nonword,1
32,4,63,231,0.477,1,suffix_control,1
32,4,64,114,0.58,1,suffix_priming,1
32,4,65,207,0.585,1,suffix_control,1
32,4,66,227,0.582,1,suffix_control,1
32,4,67,153,0.894,0,nonword,1
32,4,68,138,0.843,1,suffix_priming,1
32,4,69,355,0.65,0,nonword,1
32,4,70,161,0.936,0,nonword,1
32,4,71,274,1.414,0,nonword,1
32,4,72,367,0.617,0,nonword,1
32,4,73,472,0.938,0,nonword,1
32,4,74,126,0.818,1,suffix_priming,1
32,4,75,106,1.015,0,suffix_priming,0
32,4,76,433,0.719,1,stem_control,1
32,4,77,169,1.188,0,nonword,1
32,4,78,258,0.809,0,nonword,1
32,4,79,203,0.557,1,suffix_control,1
32,4,80,379,0.882,0,nonword,1
32,4,81,437,0.821,1,stem_control,1
32,4,82,371,0.713,0,nonword,1
32,4,83,480,0.682,0,nonword,1
32,4,84,476,0.714,0,nonword,1
32,4,85,235,0.68,1,suffix_control,1
32,4,86,343,0.673,0,nonword,1
32,4,87,444,0.729,0,nonword,1
32,4,88,320,0.626,1,stem_priming,1
32,4,89,122,0.884,1,suffix_priming,1
32,4,90,460,0.751,0,nonword,1
33,1,11,339,1.06,1,stem_priming,1
33,1,12,420,0.596,1,stem_control,1
33,1,13,218,0.558,1,suffix_control,1
33,1,14,278,0,1,nonword,0
33,1,15,440,0.847,1,stem_control,1
33,1,16,117,0.559,1,suffix_priming,1
33,1,17,347,0.973,0,nonword,1
33,1,18,129,0.581,1,suffix_priming,1
33,1,19,448,0.814,0,nonword,1
33,1,20,371,0.637,0,nonword,1
33,1,21,165,0.641,0,nonword,1
33,1,22,169,0.602,0,nonword,1
33,1,23,161,0.9,0,nonword,1
33,1,24,363,0.88,0,nonword,1
33,1,25,222,0.605,1,suffix_control,1
33,1,26,105,0.568,1,suffix_priming,1
33,1,27,141,0.718,0,nonword,1
33,1,28,307,0.574,1,stem_priming,1
33,1,29,157,0.887,0,nonword,1
33,1,30,379,1.296,0,nonword,1
33,1,31,456,0.973,0,nonword,1
33,1,32,412,0.511,1,stem_control,1
33,1,33,468,0.756,0,nonword,1
33,1,34,254,0.719,0,nonword,1
33,1,35,238,0.79,1,suffix_control,1
33,1,36,125,1.032,1,suffix_priming,1
33,1,37,177,0.657,0,nonword,1
33,1,38,206,0.594,1,suffix_control,1
33,1,39,311,0.556,1,stem_priming,1
33,1,40,480,0.756,0,nonword,1
33,1,41,335,0.502,1,stem_priming,1
33,1,42,266,0.656,0,nonword,1
33,1,43,436,0.521,1,stem_control,1
33,1,44,234,0.514,1,suffix_control,1
33,1,45,230,0.584,1,suffix_control,1
33,1,46,202,0.46,1,suffix_control,1
33,1,47,121,0.52,1,suffix_priming,1
33,1,48,323,0.52,1,stem_priming,1
33,1,49,250,0.644,0,nonword,1
33,1,50,355,0.58,0,nonword,1
33,1,51,331,1.157,1,stem_priming,1
33,1,52,327,0.47,1,stem_priming,1
33,1,53,210,0.49,1,suffix_control,1
33,1,54,375,0.802,0,nonword,1
33,1,55,101,0.541,1,suffix_priming,1
33,1,56,416,0.49,1,stem_control,1
33,1,57,315,0.515,1,stem_priming,1
33,1,58,432,0.703,1,stem_control,1
33,1,59,343,0.838,0,nonword,1
33,1,60,133,0.529,1,suffix_priming,1
33,1,61,258,0.848,0,nonword,1
33,1,62,109,0.541,1,suffix_priming,1
33,1,63,472,0.718,0,nonword,1
33,1,64,367,0.549,0,nonword,1
33,1,65,226,0.77,1,suffix_control,1
33,1,66,319,0.631,1,stem_priming,1
33,1,67,404,0.576,1,stem_control,1
33,1,68,137,0.843,1,suffix_priming,1
33,1,69,460,0.628,0,nonword,1
33,1,70,246,0.434,0,nonword,1
33,1,71,214,0.556,1,suffix_control,1
33,1,72,113,0.517,1,suffix_priming,1
33,1,73,149,0.566,0,nonword,1
33,1,74,153,0.711,0,nonword,1
33,1,75,476,0.93,0,nonword,1
33,1,76,274,0.684,0,nonword,1
33,1,77,408,0.464,1,stem_control,1
33,1,78,452,1.254,0,nonword,1
33,1,79,444,0.869,0,nonword,1
33,1,80,359,0.632,0,nonword,1
33,1,81,145,0.618,0,nonword,1
33,1,82,424,0.65,1,stem_control,1
33,1,83,262,0.578,0,nonword,1
33,1,84,351,0.706,0,nonword,1
33,1,85,464,0.506,0,nonword,1
33,1,86,303,0.609,1,stem_priming,1
33,1,87,270,0.593,0,nonword,1
33,1,88,173,0.657,0,nonword,1
33,1,89,428,0.588,1,stem_control,1
33,1,90,242,0.558,0,nonword,1
34,2,11,177,0.726,0,nonword,1
34,2,12,407,0.46,1,stem_control,1
34,2,13,213,0.636,1,suffix_control,1
34,2,14,221,0.731,1,suffix_control,1
34,2,15,254,0.58,0,nonword,1
34,2,16,237,0.796,1,suffix_control,1
34,2,17,233,0.538,1,suffix_control,1
34,2,18,278,0.588,0,nonword,1
34,2,19,145,0.652,0,nonword,1
34,2,20,229,0.516,1,suffix_control,1
34,2,21,169,0.687,0,nonword,1
34,2,22,435,0.434,1,stem_control,1
34,2,23,326,0.475,1,stem_priming,1
34,2,24,217,0.724,1,suffix_control,1
34,2,25,225,0.524,1,suffix_control,1
34,2,26,351,0.545,0,nonword,1
34,2,27,108,0.529,1,suffix_priming,1
34,2,28,363,0.598,0,nonword,1
34,2,29,120,0.609,1,suffix_priming,1
34,2,30,262,0.525,0,nonword,1
34,2,31,209,0.49,1,suffix_control,1
34,2,32,480,0.622,0,nonword,1
34,2,33,124,0.538,1,suffix_priming,1
34,2,34,427,0.538,1,stem_control,1
34,2,35,306,0.558,1,stem_priming,1
34,2,36,415,0.459,1,stem_control,1
34,2,37,132,0.502,1,suffix_priming,1
34,2,38,201,0.532,1,suffix_control,1
34,2,39,270,0.519,0,nonword,1
34,2,40,431,0.528,1,stem_control,1
34,2,41,452,0.55,1,nonword,0
34,2,42,116,0.556,1,suffix_priming,1
34,2,43,141,0.625,0,nonword,1
34,2,44,468,0.684,0,nonword,1
34,2,45,302,0.572,1,stem_priming,1
34,2,46,379,0.588,0,nonword,1
34,2,47,310,0.639,1,stem_priming,1
34,2,48,456,0.572,0,nonword,1
34,2,49,149,0.592,0,nonword,1
34,2,50,359,0.616,0,nonword,1
34,2,51,464,0.753,0,nonword,1
34,2,52,165,0.555,0,nonword,1
34,2,53,250,0.567,0,nonword,1
34,2,54,476,0.588,0,nonword,1
34,2,55,343,0.578,0,nonword,1
34,2,56,140,0.678,1,suffix_priming,1
34,2,57,128,0.601,1,suffix_priming,1
34,2,58,444,0.61,0,nonword,1
34,2,59,419,0.652,0,stem_control,0
34,2,60,314,0.629,1,stem_priming,1
34,2,61,411,0.573,1,stem_control,1
34,2,62,347,0.584,0,nonword,1
34,2,63,242,0.577,0,nonword,1
34,2,64,367,0.565,0,nonword,1
34,2,65,153,0.545,0,nonword,1
34,2,66,403,0.588,1,stem_control,1
34,2,67,334,0.5,1,stem_priming,1
34,2,68,112,0.498,1,suffix_priming,1
34,2,69,318,0.447,1,stem_priming,1
34,2,70,439,0.725,0,stem_control,0
34,2,71,205,0.532,1,suffix_control,1
34,2,72,330,0.606,1,stem_priming,1
34,2,73,338,0.638,0,stem_priming,0
34,2,74,266,0.987,0,nonword,1
34,2,75,173,0.562,0,nonword,1
34,2,76,375,0.558,0,nonword,1
34,2,77,258,0.605,0,nonword,1
34,2,78,423,0.521,1,stem_control,1
34,2,79,104,0.558,1,suffix_priming,1
34,2,80,161,0.519,0,nonword,1
34,2,81,136,0.621,1,suffix_priming,1
34,2,82,157,0.524,0,nonword,1
34,2,83,448,0.506,0,nonword,1
34,2,84,472,0.689,0,nonword,1
34,2,85,355,0.65,0,nonword,1
34,2,86,274,0.669,0,nonword,1
34,2,87,246,0.708,0,nonword,1
34,2,88,460,0.523,0,nonword,1
34,2,89,371,0.594,0,nonword,1
34,2,90,322,0.637,1,stem_priming,1
35,3,11,464,0.761,0,nonword,1
35,3,12,309,0.669,1,stem_priming,1
35,3,13,157,0.692,0,nonword,1
35,3,14,337,0.593,1,stem_priming,1
35,3,15,313,0.658,1,stem_priming,1
35,3,16,480,0.714,0,nonword,1
35,3,17,111,0.789,1,suffix_priming,1
35,3,18,141,0.801,0,nonword,1
35,3,19,274,1.285,0,nonword,1
35,3,20,232,0.453,1,suffix_control,1
35,3,21,406,0.661,0,stem_control,0
35,3,22,131,0.625,1,suffix_priming,1
35,3,23,460,0.714,0,nonword,1
35,3,24,228,0.713,1,suffix_control,1
35,3,25,325,0.494,1,stem_priming,1
35,3,26,216,0.506,1,suffix_control,1
35,3,27,103,1.025,1,suffix_priming,1
35,3,28,363,0.841,0,nonword,1
35,3,29,422,0.545,1,stem_control,1
35,3,30,278,0.664,0,nonword,1
35,3,31,452,1.142,0,nonword,1
35,3,32,204,1.092,1,suffix_control,1
35,3,33,379,0.991,0,nonword,1
35,3,34,468,0.72,1,nonword,0
35,3,35,258,0.771,0,nonword,1
35,3,36,418,0.669,1,stem_control,1
35,3,37,414,0.688,1,stem_control,1
35,3,38,250,0.727,0,nonword,1
35,3,39,119,1.064,1,suffix_priming,1
35,3,40,438,0.603,1,stem_control,1
35,3,41,107,1.084,1,suffix_priming,1
35,3,42,254,1.006,0,nonword,1
35,3,43,472,1.111,0,nonword,1
35,3,44,476,1.166,0,nonword,1
35,3,45,301,1.225,0,stem_priming,0
35,3,46,240,0.719,1,suffix_control,1
35,3,47,343,1.022,0,nonword,1
35,3,48,448,0.777,0,nonword,1
35,3,49,208,1.052,1,suffix_control,1
35,3,50,426,0.816,1,stem_control,1
35,3,51,375,1.534,0,nonword,1
35,3,52,123,0.674,1,suffix_priming,1
35,3,53,165,0.63,0,nonword,1
35,3,54,161,1.22,0,nonword,1
35,3,55,402,1.298,1,stem_control,1
35,3,56,153,0.769,0,nonword,1
35,3,57,212,0.639,1,suffix_control,1
35,3,58,266,0.848,0,nonword,1
35,3,59,224,1.304,1,suffix_control,1
35,3,60,115,0.547,1,suffix_priming,1
35,3,61,371,0.803,0,nonword,1
35,3,62,139,1.706,0,suffix_priming,0
35,3,63,236,0.916,1,suffix_control,1
35,3,64,434,0.847,1,stem_control,1
35,3,65,329,0.595,1,stem_priming,1
35,3,66,456,0,1,nonword,0
35,3,67,355,0.934,0,nonword,1
35,3,68,270,1.123,1,nonword,0
35,3,69,321,0.762,1,stem_priming,1
35,3,70,246,0.785,0,nonword,1
35,3,71,410,0.6,1,stem_control,1
35,3,72,317,0.619,1,stem_priming,1
35,3,73,145,0.842,0,nonword,1
35,3,74,220,0.72,1,suffix_control,1
35,3,75,444,0.558,1,nonword,0
35,3,76,305,0.634,1,stem_priming,1
35,3,77,351,0.924,1,nonword,0
35,3,78,333,0.581,1,stem_priming,1
35,3,79,347,0.872,0,nonword,1
35,3,80,149,1.051,0,nonword,1
35,3,81,430,0.922,1,stem_control,1
35,3,82,135,0.909,1,suffix_priming,1
35,3,83,173,0.991,0,nonword,1
35,3,84,127,0.559,1,suffix_priming,1
35,3,85,169,1.038,0,nonword,1
35,3,86,242,1.155,0,nonword,1
35,3,87,359,1.096,0,nonword,1
35,3,88,262,0.953,0,nonword,1
35,3,89,177,0.99,0,nonword,1
35,3,90,367,1.204,0,nonword,1
36,4,11,405,0.747,1,stem_control,1
36,4,12,130,0.515,1,suffix_priming,1
36,4,13,425,0.626,1,stem_control,1
36,4,14,165,0.637,0,nonword,1
36,4,15,262,0.656,0,nonword,1
36,4,16,141,0.663,0,nonword,1
36,4,17,343,0.76,0,nonword,1
36,4,18,359,0.847,0,nonword,1
36,4,19,456,0.805,0,nonword,1
36,4,20,231,0.898,0,suffix_control,0
36,4,21,340,0.732,1,stem_priming,1
36,4,22,464,0.743,0,nonword,1
36,4,23,177,0.754,0,nonword,1
36,4,24,235,0.626,1,suffix_control,1
36,4,25,401,0.775,1,stem_control,1
36,4,26,106,0.849,0,suffix_priming,0
36,4,27,157,1.188,0,nonword,1
36,4,28,239,1.206,1,suffix_control,1
36,4,29,242,0.871,0,nonword,1
36,4,30,476,0.621,0,nonword,1
36,4,31,328,0.769,1,stem_priming,1
36,4,32,134,1.368,1,suffix_priming,1
36,4,33,203,0.668,1,suffix_control,1
36,4,34,316,0.628,1,stem_priming,1
36,4,35,347,0.99,0,nonword,1
36,4,36,278,0.947,0,nonword,1
36,4,37,371,1.131,0,nonword,1
36,4,38,173,0.812,0,nonword,1
36,4,39,266,0.636,0,nonword,1
36,4,40,304,0.793,1,stem_priming,1
36,4,41,169,1.165,0,nonword,1
36,4,42,351,0.947,0,nonword,1
36,4,43,227,0.709,1,suffix_control,1
36,4,44,421,0.841,1,stem_control,1
36,4,45,336,0.852,1,stem_priming,1
36,4,46,444,1.006,0,nonword,1
36,4,47,363,0.968,0,nonword,1
36,4,48,375,0.871,0,nonword,1
36,4,49,114,0.891,1,suffix_priming,1
36,4,50,219,0.704,1,suffix_control,1
36,4,51,122,0.701,1,suffix_priming,1
36,4,52,246,1.109,0,nonword,1
36,4,53,367,0.841,0,nonword,1
36,4,54,102,0.731,1,suffix_priming,1
36,4,55,161,1.427,0,nonword,1
36,4,56,118,0.728,1,suffix_priming,1
36,4,57,480,1.385,0,nonword,1
36,4,58,429,0.627,1,stem_control,1
36,4,59,417,0.733,1,stem_control,1
36,4,60,433,0.74,1,stem_control,1
36,4,61,250,0.722,0,nonword,1
36,4,62,320,0.992,1,stem_priming,1
36,4,63,126,0.849,1,suffix_priming,1
36,4,64,312,0.646,1,stem_priming,1
36,4,65,468,0.771,0,nonword,1
36,4,66,211,0.711,1,suffix_control,1
36,4,67,258,0.73,0,nonword,1
36,4,68,448,0.728,0,nonword,1
36,4,69,308,0.877,1,stem_priming,1
36,4,70,437,0.705,1,stem_control,1
36,4,71,460,0.762,0,nonword,1
36,4,72,138,1.45,0,suffix_priming,0
36,4,73,332,0.83,1,stem_priming,1
36,4,74,472,0.867,0,nonword,1
36,4,75,413,0.86,1,stem_control,1
36,4,76,145,0.843,0,nonword,1
36,4,77,254,1.1,0,nonword,1
36,4,78,274,0.931,0,nonword,1
36,4,79,270,0.691,0,nonword,1
36,4,80,207,0.682,1,suffix_control,1
36,4,81,153,0.747,0,nonword,1
36,4,82,409,0.635,1,stem_control,1
36,4,83,215,0.591,1,suffix_control,1
36,4,84,149,1.212,0,nonword,1
36,4,85,355,0.662,0,nonword,1
36,4,86,223,0.591,1,suffix_control,1
36,4,87,379,0.871,0,nonword,1
36,4,88,324,0.627,1,stem_priming,1
36,4,89,110,0.743,1,suffix_priming,1
36,4,90,452,0.686,0,nonword,1
37,1,11,339,1.011,0,stem_priming,0
37,1,12,420,0.986,1,stem_control,1
37,1,13,218,1.37,1,suffix_control,1
37,1,14,278,1.145,0,nonword,1
37,1,15,448,1.086,0,nonword,1
37,1,16,375,1.502,0,nonword,1
37,1,17,105,1.45,0,suffix_priming,0
37,1,18,315,0.75,1,stem_priming,1
37,1,19,153,1.224,0,nonword,1
37,1,20,476,1.548,0,nonword,1
37,1,21,351,1.218,1,nonword,0
37,1,22,363,1.19,0,nonword,1
37,1,23,416,0.649,1,stem_control,1
37,1,24,412,0.76,1,stem_control,1
37,1,25,428,0.896,1,stem_control,1
37,1,26,149,0.989,0,nonword,1
37,1,27,303,0.655,1,stem_priming,1
37,1,28,157,0.94,0,nonword,1
37,1,29,129,0.489,1,suffix_priming,1
37,1,30,161,1.06,0,nonword,1
37,1,31,214,0.678,1,suffix_control,1
37,1,32,343,0.702,1,nonword,0
37,1,33,109,0.9,1,suffix_priming,1
37,1,34,101,1.095,1,suffix_priming,1
37,1,35,145,0.861,0,nonword,1
37,1,36,347,1.026,0,nonword,1
37,1,37,367,1.036,0,nonword,1
37,1,38,311,0.63,1,stem_priming,1
37,1,39,480,1.054,0,nonword,1
37,1,40,327,0.603,1,stem_priming,1
37,1,41,258,0.828,0,nonword,1
37,1,42,371,0.529,1,nonword,0
37,1,43,254,1.212,1,nonword,0
37,1,44,262,0.922,0,nonword,1
37,1,45,323,0.908,1,stem_priming,1
37,1,46,226,1.311,1,suffix_control,1
37,1,47,210,0.887,1,suffix_control,1
37,1,48,319,1.054,1,stem_priming,1
37,1,49,452,0.82,0,nonword,1
37,1,50,440,0.769,1,stem_control,1
37,1,51,177,0.878,0,nonword,1
37,1,52,173,1.349,1,nonword,0
37,1,53,404,0.989,1,stem_control,1
37,1,54,242,1.163,0,nonword,1
37,1,55,436,1.006,1,stem_control,1
37,1,56,331,0.98,1,stem_priming,1
37,1,57,468,1.029,0,nonword,1
37,1,58,270,1.146,0,nonword,1
37,1,59,222,0.959,0,suffix_control,0
37,1,60,141,1.303,0,nonword,1
37,1,61,230,0.766,1,suffix_control,1
37,1,62,424,1.054,1,stem_control,1
37,1,63,274,1.252,0,nonword,1
37,1,64,307,0.769,1,stem_priming,1
37,1,65,460,1.034,0,nonword,1
37,1,66,355,1.082,0,nonword,1
37,1,67,169,1.778,0,nonword,1
37,1,68,165,1.173,0,nonword,1
37,1,69,250,1.356,0,nonword,1
37,1,70,234,0.998,1,suffix_control,1
37,1,71,137,0.743,1,suffix_priming,1
37,1,72,335,0.779,1,stem_priming,1
37,1,73,202,1.046,1,suffix_control,1
37,1,74,125,0.719,1,suffix_priming,1
37,1,75,206,0.685,1,suffix_control,1
37,1,76,408,0.536,1,stem_control,1
37,1,77,246,0.602,0,nonword,1
37,1,78,456,0.972,0,nonword,1
37,1,79,238,0.688,1,suffix_control,1
37,1,80,472,1.093,0,nonword,1
37,1,81,121,0.648,1,suffix_priming,1
37,1,82,113,1.208,1,suffix_priming,1
37,1,83,379,0.72,0,nonword,1
37,1,84,266,0.835,0,nonword,1
37,1,85,359,1.196,0,nonword,1
37,1,86,444,0.937,0,nonword,1
37,1,87,133,0.677,1,suffix_priming,1
37,1,88,432,0.708,1,stem_control,1
37,1,89,464,1.552,1,nonword,0
37,1,90,117,0.723,1,suffix_priming,1
38,2,11,177,1.014,1,nonword,0
38,2,12,407,0.64,1,stem_control,1
38,2,13,213,0.769,1,suffix_control,1
38,2,14,221,0.851,1,suffix_control,1
38,2,15,419,0.902,1,stem_control,1
38,2,16,145,0.874,0,nonword,1
38,2,17,116,0.627,1,suffix_priming,1
38,2,18,237,0.921,1,suffix_control,1
